// Start Time: Unknown
// Update Rate: 225.0Hz
// Filter Profile: human (46.1)
// Option Flags: AHS Disabled ICC Disabled 
// Firmware Version: 4.0.2
PacketCounter	SampleTimeFine	Mat[1][1]	Mat[2][1]	Mat[3][1]	Mat[1][2]	Mat[2][2]	Mat[3][2]	Mat[1][3]	Mat[2][3]	Mat[3][3]
29251	133.1102464236111	0.10911338063066998	0.21169797698676793	0.9712251215382852	0.026047181917227758	-0.977332255220363	0.2101028491478654	0.9936879864834424	0.002372645272630069	-0.11215416208457402
29252	133.11468099305554	0.1091371519399424	0.21166261766580843	0.9712301572486801	0.02590418705071447	-0.9773402471975123	0.21008335084234384	0.9936891139383986	0.002231029081731583	-0.11214707909507471
29253	133.1191177222222	0.10911015506721375	0.21166074833765028	0.9712335978920594	0.025880867293121113	-0.9773406906423532	0.21008416199914717	0.9936926862815105	0.002214052364772319	-0.11211575804837443
29254	133.12355445138888	0.1090831580541161	0.21165887947071932	0.9712370376844883	0.025857547502398586	-0.9773411336887782	0.21008497242091137	0.9936962573473354	0.0021970755866306518	-0.11208443688918063
29255	133.12799118055554	0.10905616090068425	0.21165701106501847	0.9712404766259625	0.02583422767857739	-0.9773415763367864	0.21008578210763545	0.9936998271358688	0.0021800987473287593	-0.11205311561753373
29256	133.13242790972222	0.10902916360695258	0.21165514312054967	0.9712439147164775	0.025810907821686935	-0.9773420185863777	0.21008659105931826	0.993703395647106	0.0021631218468880532	-0.11202179423347391
29257	133.13686463888888	0.10900216617295654	0.21165327563731554	0.9712473519560286	0.025787587931757852	-0.977342460437551	0.21008739927595885	0.9937069628810422	0.002146144885330778	-0.11199047273704194
29258	133.14130136805557	0.10897516859873	0.21165140861531828	0.9712507883446119	0.025764268008819664	-0.9773429018903059	0.21008820675755602	0.9937105288376732	0.002129167862678477	-0.11195915112827737
29259	133.14573809722222	0.10894817088430794	0.21164954205456052	0.9712542238822225	0.02574094805290261	-0.977343342944642	0.21008901350410883	0.9937140935169941	0.0021121907789531406	-0.11192782940722062
29260	133.1501748263889	0.10892117302972514	0.21164767595504447	0.9712576585688565	0.025717628064036283	-0.9773437836005588	0.21008981951561637	0.9937176569190006	0.0020952136341764235	-0.11189650757391217
29261	133.15461155555556	0.10889417503501626	0.2116458103167728	0.9712610924045089	0.02569430804225103	-0.9773442238580552	0.21009062479207746	0.9937212190436878	0.0020782364283703923	-0.11186518562839232
29262	133.159046125	0.10891443015144796	0.21164520656736668	0.9712589528245504	0.02563035139977816	-0.977344495066816	0.21009717525401103	0.99372065088329	0.002011094141854359	-0.11187145975825719
29263	133.16348069444444	0.10892219390490415	0.21164487397857587	0.9712581546599933	0.025653688132155322	-0.9773445229473158	0.21009419732610934	0.9937191977415758	0.0020324328960104237	-0.1118839812321793
29264	133.1679152638889	0.10892087449534853	0.21166058993436493	0.9712548778604951	0.025693009408798984	-0.9773410415622815	0.21010558713531247	0.9937183264721889	0.0020695764280747493	-0.111891038455814
29265	133.17234983333336	0.10894584137447536	0.2116512985950133	0.9712541024110284	0.025741725193883933	-0.9773429602676511	0.21009069850735254	0.9937143287843093	0.002113248283862416	-0.11192572068314127
29266	133.17678440277777	0.10898151413331494	0.21160610179012526	0.9712599483466808	0.0255684910742375	-0.9773531051751934	0.2100646568763865	0.9937148896144189	0.0019404869477825666	-0.11192386996976467
29267	133.1812229097222	0.10904252490732928	0.21158919690673317	0.9712567835100037	0.025356295625670263	-0.97735717665357	0.21007143431677233	0.9937136338170963	0.001720754522312132	-0.11193861250656917
29268	133.18565747916665	0.10907865386423339	0.21153186298889215	0.9712652151763776	0.025130347781884277	-0.9773699548243581	0.210039132132547	0.9937154083999745	0.0014974468539989381	-0.11192606828344825
29269	133.1900920486111	0.1090822535921468	0.21146778690046591	0.9712787638235885	0.02493873929719547	-0.9773840822744826	0.20999622615355393	0.9937198404145535	0.001315606281222884	-0.11188899832685828
29270	133.19452661805553	0.109116363917564	0.21139921820268084	0.9712898587284362	0.024707425996002837	-0.9773991943876539	0.20995322791283225	0.9937218736779734	0.0010887394825970672	-0.11187337672689274
29271	133.19896118749998	0.10915050794516142	0.21138813276077126	0.9712884349889215	0.02453345400941144	-0.9774017731906701	0.20996162363180218	0.993722434208709	0.0009116422812718571	-0.11186998104348483
29272	133.20339575694442	0.10918891093551802	0.21136197587225822	0.9712898109648277	0.024361253001906096	-0.9774075771214868	0.2099546559085607	0.9937224517343326	0.0007371165985905417	-0.11187111145522532
29273	133.20782909027776	0.10918043519792688	0.21133703882469662	0.9712961899394026	0.024244748002118344	-0.9774130460779897	0.20994268158442556	0.9937262323015856	0.0006271980184911911	-0.11183819498874498
29274	133.2122624236111	0.10917195645409758	0.21131210264390404	0.9713025683072178	0.024128242786685787	-0.9774185018195012	0.20993070333076375	0.9937299994586114	0.0005172785850437266	-0.11180527983442506
29275	133.21669575694443	0.10916347470414736	0.21128716733022515	0.971308946068184	0.02401173735721944	-0.977423944345945	0.20991872114774057	0.9937337532053567	0.0004073582997684701	-0.11177236599272072
29276	133.22112909027777	0.10915498994819385	0.21126223288400486	0.971315323222214	0.02389523171533089	-0.9774293736572467	0.20990673503552193	0.9937374935417704	0.00029743716418575614	-0.1117394534640877
29277	133.22556242361108	0.10914650218635404	0.2112372993055883	0.9713216997692196	0.023778725862631758	-0.9774347897533312	0.20989474499427363	0.9937412204678008	0.00018751517981607452	-0.11170654224898063
29278	133.22999575694442	0.10913801141874534	0.2112123665953198	0.9713280757091117	0.023662219800732347	-0.9774401926341232	0.20988275102416135	0.9937449339833957	7.759234817880341e-05	-0.11167363234785488
29279	133.23442909027776	0.10912951764548562	0.21118743475354446	0.971334451041803	0.023545713531244596	-0.9774455822995479	0.20987075312535097	0.9937486340885042	-3.2331329205233724e-05	-0.1116407237611659
29280	133.2388624236111	0.10912102086669169	0.21116250378060716	0.9713408257672054	0.023429207055779656	-0.9774509587495314	0.2098587512980086	0.9937523207830755	-0.00014225585081597986	-0.11160781648936813
29281	133.24329575694443	0.10911252108248166	0.21113757367685246	0.9713471998852299	0.023312700375949177	-0.9774563219839988	0.20984674554230004	0.993755994067058	-0.00025218121513285633	-0.11157491053291729
29282	133.24773032638888	0.10901059193134277	0.21115206507546988	0.9713554942764998	0.023182790773190454	-0.9774531578759655	0.20987587372127717	0.9937702194465001	-0.0003599620362630835	-0.11144784147119086
29283	133.25216489583332	0.10897758820280455	0.21112799998113446	0.9713644284682583	0.023124471756232796	-0.9774583374893392	0.20985818373028067	0.9937751979575135	-0.0004075494364234974	-0.11140327566082475
29284	133.25659946527776	0.10888658865623319	0.2111467901526749	0.9713705491824584	0.022956817016318215	-0.9774542059293315	0.2098958309817982	0.9937890597925133	-0.0005552650561510296	-0.11127891227645009
29285	133.26103403472223	0.10883144136320967	0.211144286190102	0.971377273658427	0.022923967212342286	-0.9774547350804556	0.2098969570909593	0.9937958588654179	-0.0005755676058007621	-0.11121807237979553
29286	133.26546860416664	0.10874953479073499	0.21115297489237528	0.9713845581832659	0.023023865722446135	-0.9774529189509827	0.209894480254718	0.9938025157394167	-0.00046089945037448604	-0.11115910795658246
29287	133.2699156423611	0.10871252083067635	0.21117521485627977	0.9713838666794112	0.023138992481379083	-0.9774481630398574	0.20990396755887022	0.9938038915407741	-0.0003423454580574503	-0.11114723549418998
29288	133.27436268055556	0.10867550420262911	0.21119745035897403	0.9713831745239223	0.02325411855380006	-0.977443393184164	0.2099134561930546	0.9938052529326808	-0.00022379118915070875	-0.11113536413272557
29289	133.27879724999997	0.10865382315653307	0.21119280329677168	0.9713866102377158	0.02330717220277503	-0.9774444087122914	0.20990284324179423	0.9938063807590385	-0.00016647140936686458	-0.111125378963992
29290	133.28323181944444	0.10863307635405281	0.2111279996383042	0.9714030175424531	0.023347319353937548	-0.9774584157426391	0.20983314364722214	0.9938077064507199	-0.00011516344349737733	-0.11111358754239514
29291	133.28766638888885	0.10864527751957992	0.21112975843932033	0.9714012707290679	0.02339196309956129	-0.977458039824893	0.20982992266125133	0.9938053228550562	-7.404749968239207e-05	-0.11113493951915204
29292	133.29210095833332	0.10864729904587721	0.2110865117340865	0.9714104431052669	0.023284643739189967	-0.9774673671839276	0.20979840670619956	0.9938076221160586	-0.00017508414052218714	-0.11111426357389503
29293	133.29653552777776	0.10861362683561099	0.21108796628785387	0.9714138925062131	0.023139569753602002	-0.9774670193417017	0.20981607757954956	0.99381469116593	-0.0003107856290712591	-0.11105072280296024
29294	133.30094353472222	0.10859865855128698	0.21107270896454403	0.9714188812717354	0.022992627346921056	-0.9774702597428715	0.2098171356345547	0.9938197374013794	-0.00045038713614216466	-0.11100507512218077
29295	133.30537810416664	0.10854192580439455	0.21110293297851218	0.9714186543558566	0.022816329418006782	-0.9774636429243103	0.2098672005650846	0.993829998266586	-0.0006151820919312349	-0.11091238026672884
29296	133.3098126736111	0.10851162523720197	0.211128527615109	0.9714164771175426	0.022641605666207664	-0.9774579944629719	0.20991242639081875	0.9938373030236072	-0.0007835097326001825	-0.1108458444474213
29297	133.31424724305555	0.1084984740842928	0.21108745101777077	0.9714268727723155	0.022469989549436083	-0.9774667233946769	0.20989021946179962	0.9938426337660448	-0.0009448168575872993	-0.11079678077488231
29298	133.3186818125	0.10847704930745687	0.21107860833265812	0.9714311868979174	0.02228336878240565	-0.9774684447195321	0.20990209873483157	0.9938491742962086	-0.0011228009298205972	-0.11073643514587744
29299	133.32311638194443	0.10844565769574495	0.21110949067499493	0.9714279810021339	0.022091865202715485	-0.9774615450740464	0.20995446504736137	0.9938568754195963	-0.0013079940377741619	-0.11066526253885983
29300	133.32756345138887	0.108439228172397	0.2110914363231352	0.9714326221125225	0.021983302594822278	-0.9774653004700726	0.2099483764737786	0.9938599842032074	-0.0014113426184833298	-0.11063606966814199
29301	133.33201052083334	0.10843279662144469	0.21107338261292027	0.9714372629095473	0.02187473977307769	-0.9774690444516989	0.20994228468448992	0.9938630813028085	-0.0015146917254175755	-0.1106068774184698
29302	133.33644509027778	0.10842107712077782	0.21106839871962887	0.9714396538632248	0.02187407496387959	-0.9774701243769008	0.20993732587389177	0.9938643744900231	-0.00151228718761377	-0.11059528971442345
29303	133.34087965972222	0.1083476839612848	0.21105956183255892	0.9714497623342517	0.02186602962652709	-0.9774720459228349	0.20992921708947432	0.9938725552748691	-0.001503595183566957	-0.11052186694463023
29304	133.34531422916666	0.10827453750309156	0.21106213903672855	0.9714573577845464	0.021858890169336443	-0.9774715020664743	0.2099324928839635	0.9938806837085911	-0.0014953638858760721	-0.11044885892480877
29305	133.34974879861113	0.10818484580494439	0.21103203898102724	0.9714738893360289	0.021862430695599223	-0.9774780403603192	0.20990167873895296	0.9938903728592207	-0.0014694001703794252	-0.11036198440087402
29306	133.35418336805554	0.10815279448809209	0.2110420433265874	0.9714752848080879	0.021881093846845875	-0.9774759162516717	0.2099096255058847	0.99389345041432	-0.0014453707116332132	-0.11033458264308571
29307	133.35861515624998	0.10812828803278891	0.21103240901561396	0.9714801056491917	0.0218702946674471	-0.9774779899028246	0.2099010944866476	0.993896354525087	-0.0014496898289394192	-0.11030836260747678
29308	133.36304694444445	0.10810378139841878	0.21102277479156636	0.971484925753679	0.021859495702069735	-0.9774800634163832	0.2098925631630502	0.9938992579205471	-0.0014540092061939942	-0.1102821425354723
29309	133.36748151388886	0.10809959558724762	0.21101828359117203	0.9714863670809332	0.02180921021918881	-0.977480960321871	0.20989361723942007	0.993900817880481	-0.0015020647351817345	-0.11026743861196092
29310	133.37191608333333	0.10808686497285838	0.21101568121715936	0.9714883488240079	0.021754553332336557	-0.9774814428091072	0.20989704231631362	0.9939034002505724	-0.0015528181748102022	-0.11024345661338081
29311	133.37635065277777	0.10802815202090159	0.21102639292427025	0.9714925526530405	0.021752333139295667	-0.9774791447153197	0.20990797424015162	0.9939098321145364	-0.0015437409039609307	-0.11018558204264
29312	133.38078522222222	0.10796042304980862	0.2110282154311407	0.9714996857162923	0.021760346339455353	-0.9774787858555797	0.2099088147970188	0.9939170158429192	-0.0015216748175115723	-0.11012107029836055
29313	133.38521979166666	0.10788943758755667	0.21102741249121715	0.9715077459466305	0.021769770305055235	-0.9774789969475336	0.20990685464583855	0.9939245174347529	-0.001497232014672505	-0.11005367753232237
29314	133.3896515798611	0.10787499426623952	0.2110386040813859	0.971506918760458	0.02178782189347897	-0.9774766104903717	0.2099160945744571	0.9939256895911268	-0.0014776777843755464	-0.11004335527040571
29315	133.39408336805553	0.10786055072189843	0.21104979536502144	0.9715060913212803	0.021805873336677467	-0.9774742235744287	0.20992533466828836	0.9939268612357721	-0.0014581234346379523	-0.11003303317665925
29316	133.39851793749997	0.10781078808323784	0.21104589489760192	0.9715124622050616	0.02181558279052746	-0.9774750961905448	0.2099202626589309	0.9939320471341995	-0.0014375584006359183	-0.10998644964478094
29317	133.40295250694444	0.10782883410763304	0.21108994801774372	0.9715008885126434	0.021817241382550628	-0.9774655730729076	0.20996442897716844	0.9939300531292153	-0.001444750192640209	-0.11000437347413422
29318	133.40738707638886	0.10784513253778504	0.21106370031593563	0.9715047821790962	0.021814136268654437	-0.9774712358166777	0.2099383876518778	0.9939283529745797	-0.0014482955369813533	-0.11001968729858036
29319	133.41182164583333	0.1078567085485427	0.21110286478277804	0.9714949875843821	0.021809062470513747	-0.9774627605958075	0.20997837136852973	0.9939272082075387	-0.0014601811281743117	-0.11002987165238798
29320	133.41625621527777	0.10785755654168312	0.21112531456823871	0.9714900148973843	0.021801415359053118	-0.9774578964847893	0.21000180686811462	0.9939272839525031	-0.0014704244261827652	-0.11002905101293581
29321	133.4206947222222	0.10789697700480133	0.21115347262138948	0.971479517721889	0.021750908014095214	-0.9774517200362283	0.21003578980445645	0.9939241119692128	-0.0015316651551703759	-0.11005686551989702
29322	133.42512929166665	0.10793887230263094	0.2111501340891632	0.9714755893588707	0.021690924525773484	-0.9774523331006819	0.21003913994598997	0.9939208739327563	-0.0015991842177700457	-0.1100851441865982
29323	133.42956386111112	0.10798961275691907	0.211175692161176	0.9714643949094888	0.021631047226628973	-0.9774466902463985	0.2100715723800843	0.9939166671972507	-0.0016717555472867147	-0.11012204094049521
29324	133.43399843055553	0.10800571488796733	0.21126676979432532	0.9714428019869266	0.021620894168598394	-0.9774269677542737	0.21016436339692868	0.9939151384735466	-0.001695490300053827	-0.11013547487414321
29325	133.438433	0.10804879512475357	0.2113000926574922	0.9714307637268982	0.021628119793370856	-0.9774197544151447	0.2101971648553854	0.9939102989235462	-0.0017013294724125812	-0.11017905051203547
29326	133.44286756944442	0.10801478937524629	0.21133975167279698	0.9714259182454945	0.021620715618887374	-0.9774111721100418	0.21023783030321125	0.9939141562189103	-0.0017058714357077495	-0.11014417855836256
29327	133.44731460763887	0.1080464416839199	0.21137382359077758	0.9714149850296003	0.021584596072246817	-0.9774037227393909	0.2102761707554574	0.993911500915369	-0.0017519919506557495	-0.11016741293306104
29328	133.45176164583336	0.10807809516714799	0.21140789374481772	0.9714040497174288	0.02154847773745832	-0.9773962703279676	0.21031451175840657	0.9939088431301129	-0.0017981132774444982	-0.11019064541240475
29329	133.45619621527777	0.10807161528602952	0.21147596441914543	0.9713899538509039	0.021498513652732573	-0.9773814407305368	0.2103885292173123	0.9939106297249226	-0.0018535880051761236	-0.11017360995862568
29330	133.46063078472224	0.10808816917275692	0.21150348806302152	0.9713821195709013	0.021433619084823115	-0.9773753488631356	0.21042344785596154	0.993910231186805	-0.0019240508930791996	-0.11017599725145516
29331	133.46506535416668	0.10810469774009611	0.21150991338559372	0.9713788812127537	0.02136483474711843	-0.9773738142391734	0.2104375704949048	0.9939099145107421	-0.0019959406775605618	-0.11017757511427123
29332	133.46949992361112	0.10811504727859116	0.21159102455466802	0.9713600644868277	0.021293769936771224	-0.9773560883595197	0.2105270811759351	0.9939103138180164	-0.002077227595810276	-0.11017247029856125
29333	133.47393449305557	0.10813300600697141	0.21164893087574316	0.971345449915246	0.02129975094942931	-0.9773435406278109	0.2105847197746959	0.9939082319919627	-0.002081742599317383	-0.11019116446594807
29334	133.4783678263889	0.10825374707329206	0.21168387488752624	0.9713243862671185	0.02111785860798871	-0.977335506148977	0.2106403201391801	0.9938989698618291	-0.0022903128881035773	-0.11027054082786525
29335	133.48280115972224	0.10837449355737823	0.21171879311113834	0.9713033109125826	0.02093597235259014	-0.9773274314233762	0.21069593458118185	0.9938896589701665	-0.002498885941588985	-0.11034990421934027
29336	133.48723449305555	0.10849524545304812	0.21175368554479249	0.9712822238527175	0.020754092192544926	-0.9773193164514219	0.21075156309785467	0.9938802993174511	-0.002707461749095989	-0.11042925463630998
29337	133.4916678263889	0.10861600275412316	0.21178855218670262	0.9712611250886019	0.020572218137160113	-0.9773111612335292	0.21080720568635147	0.9938708909041623	-0.002916040299951484	-0.11050859207471442
29338	133.49610115972223	0.10873676545442092	0.21182339303508427	0.9712400146213164	0.02039035019574648	-0.977302965770116	0.21086286234382415	0.9938614337307818	-0.00312462158347765	-0.11058791653049177
29339	133.50053449305557	0.10885753354776045	0.2118582080881538	0.9712188924519412	0.02020848837761333	-0.9772947300616014	0.21091853306742364	0.9938519277977934	-0.003333205588998077	-0.11066722799958179
29340	133.50496782638888	0.1089783070279589	0.21189299734412906	0.9711977585815572	0.02002663269207006	-0.9772864541084069	0.21097421785430004	0.9938423731056835	-0.00354179230583483	-0.11074652647792388
29341	133.50940115972222	0.10909908588883628	0.21192776080122988	0.9711766130112471	0.01984478314842319	-0.9772781379109566	0.211029916701604	0.9938327696549419	-0.0037503817233139063	-0.11082581196146063
29342	133.51383449305555	0.10921987012420974	0.21196249845767615	0.971155455742092	0.019662939755981736	-0.9772697814696755	0.2110856296064837	0.9938231174460591	-0.003958973830757425	-0.1109050844461334
29343	133.51826906249997	0.10941266439215508	0.21196217368500286	0.9711338248652132	0.01934613647105231	-0.9772683594452172	0.21112148311078466	0.9938081282995491	-0.004311676470077028	-0.1110261841718625
29344	133.52270363194444	0.1095889059717742	0.2119763942167831	0.9711108484528224	0.018965534484533475	-0.9772633627972588	0.21117913778569414	0.993796045569525	-0.00472525438936021	-0.11111746838967407
29345	133.52713820138888	0.10980778198764925	0.21189998841735655	0.9711027988445287	0.01857549076722666	-0.9772778032037817	0.21114697844853716	0.9937792522274298	-0.005146870302863298	-0.11124885423399178
29346	133.53157277083332	0.10992648514592247	0.2118946933429762	0.9710905245117725	0.018345175933608147	-0.9772775956928571	0.21116807399972518	0.9937704072789791	-0.0053981376301956005	-0.11131593653514854
29347	133.53600734027776	0.11003702084368015	0.2118850271684481	0.9710801147720376	0.018124447696486388	-0.9772783386619619	0.21118369534084128	0.9937622242969115	-0.005637733936781755	-0.11137709601400647
29348	133.5404391284722	0.1101852538893754	0.21189743282007786	0.9710605994424832	0.01779038918130927	-0.9772734956925482	0.2112345063422281	0.9937518361633914	-0.005999381728798053	-0.11145086603863041
29349	133.54487091666664	0.11033348991060714	0.21190978437137678	0.9710410724021012	0.017456336210165825	-0.9772685304401496	0.2112853419844076	0.9937413130841768	-0.006361029714364756	-0.11152461598548263
29350	133.54930548611108	0.11050248900596672	0.21190248929299368	0.9710234471705195	0.017048194070755415	-0.9772671721746947	0.2113249471042198	0.9937296206727522	-0.006797736469453626	-0.11160300971066955
29351	133.55374005555555	0.11063978701120482	0.21181559819709161	0.9710267709443051	0.016611424193713864	-0.9772827830931532	0.21128753502267467	0.9937217407888247	-0.007246670277422938	-0.1116449177236411
29352	133.55817462499996	0.11083833244866666	0.21180794399334196	0.971005797573481	0.016126998819785684	-0.9772804635011548	0.21133578865879432	0.9937075948029508	-0.007764697050191959	-0.11173596337192993
29353	133.56260919444443	0.11095976807068694	0.2118377241283492	0.9709854316650796	0.01558463770991632	-0.9772693748938034	0.21142773697442174	0.9937026964525909	-0.008327516484285116	-0.11173899736463516
29354	133.56704376388888	0.11108664930112908	0.2118083325199747	0.9709773357922191	0.014964869036836638	-0.9772701437266225	0.21146895487342118	0.9936980472164361	-0.008960828960232991	-0.11173134968569554
29355	133.57148233333334	0.11120989928263464	0.2118070763722913	0.9709635012193655	0.01429438543356544	-0.9772638884654813	0.21154423378197726	0.9936941324404723	-0.009646486404362104	-0.11170907059602425
29356	133.57591690277775	0.11136536584437216	0.21178932776656811	0.970949553753713	0.013588917433645617	-0.9772603088550865	0.21160725426941876	0.9936866189163113	-0.010371565968842556	-0.11171093950917815
29357	133.58035147222222	0.1115270668643507	0.2117792918935109	0.9709331825011016	0.012862879399009375	-0.9772542641776131	0.21168053637554443	0.9936781469319937	-0.01111911290322895	-0.11171439315524229
29358	133.58478604166663	0.11170476487929744	0.21175841906745554	0.9709173072189583	0.01208010102982802	-0.9772492897987547	0.21174960861106432	0.9936680112906776	-0.011924661080368531	-0.11172146524168186
29359	133.5892206111111	0.11185708632319048	0.2116627542232684	0.9709206304914457	0.011195099475589353	-0.9772587223236182	0.21175471515444644	0.993661241061066	-0.01281671241111985	-0.11168289885185051
29360	133.59365518055554	0.11195642434122625	0.21157862353845347	0.9709275179488431	0.010215918277463563	-0.9772636717866637	0.2117813750540793	0.993660603054421	-0.013791369316416877	-0.11157241625913966
29361	133.59810221875	0.11207356002603454	0.2114109902134788	0.9709505190070438	0.009283297702453376	-0.9772864867843364	0.2117190192979769	0.9936565490786334	-0.014714481495650964	-0.11149056689897896
29362	133.60254925694446	0.11219053679481271	0.21124324580694714	0.9709735189770303	0.008350661374817778	-0.9773084245677336	0.21165658440865384	0.9936516240153259	-0.015637594760071056	-0.11140877757979806
29363	133.6069838263889	0.11230332030856786	0.21109218014498288	0.970993334544223	0.007476646629191242	-0.9773268165398054	0.21160433225090627	0.9936458443544427	-0.016504095061766966	-0.11133530816115239
29364	133.61141839583334	0.11239042555205958	0.21089664578170889	0.971025744788598	0.006620806284022493	-0.9773545184139986	0.21150487053467695	0.9936420669277124	-0.017342149052681693	-0.11124159607744838
29365	133.61585296527778	0.11250119901773234	0.2106333352865342	0.9710700686797237	0.005796155521370574	-0.9773966897687604	0.21133413214680163	0.9936346837750506	-0.018146870119671397	-0.1111791630842539
29366	133.62028753472222	0.11262268940342324	0.21038303414540077	0.9711102454280436	0.004998731143039422	-0.9774357707393483	0.2111736886217971	0.9936252525567674	-0.018928629716682074	-0.11113309344452293
29367	133.62472210416666	0.1127076261014721	0.21013040282549686	0.9711550879375372	0.00418003654118548	-0.9774744020035561	0.2110126079700103	0.9936194031484518	-0.0197232663670434	-0.11104717218700139
29368	133.6291554375	0.11270376878855617	0.209846439053367	0.9712169338090626	0.00311183188407036	-0.9775143416863696	0.21084598241320227	0.9936237602851398	-0.020740873030917522	-0.11082255719272327
29369	133.63358877083334	0.11269960103175694	0.20956246887630905	0.971278730110852	0.0020436244324772987	-0.9775531383783592	0.21067910491028666	0.9936270042256612	-0.0217585221255169	-0.11059811566410888
29370	133.63802210416665	0.11269512283595258	0.20927849262669593	0.9713404767705751	0.000975415436691236	-0.9775907920341146	0.2105119756565854	0.9936291349662186	-0.022776212459732895	-0.11037384786385623
29371	133.6424554375	0.11269033420638414	0.20899451063690316	0.9714021737159615	-9.279385302131396e-05	-0.9776273026095644	0.21034459484771217	0.9936301525043182	-0.02379394284242765	-0.11014975405445532
29372	133.64688877083333	0.11268523514865687	0.20871052323931724	0.9714638208747982	-0.0011610021863741654	-0.9776626700619752	0.21017696267957778	0.9936300568387688	-0.02481171208239776	-0.10992583449819726
29373	133.65132210416667	0.11267982566873838	0.2084265307663304	0.9715254181749314	-0.002229208313087502	-0.9776968943499517	0.21000907934838683	0.9936288479696834	-0.025829518988399892	-0.10970208945716714
29374	133.65575543749998	0.11267410577296108	0.2081425335503413	0.9715869655442628	-0.0032974109828787295	-0.9777299754334349	0.20984094505063813	0.9936265258984754	-0.026847362369141085	-0.10947851919324836
29375	133.66018877083332	0.11266807546801885	0.20785853192374995	0.9716484629107569	-0.004365608945488525	-0.9777619132737067	0.2096725599831218	0.9936230906278638	-0.027865241033304303	-0.10925512396811399
29376	133.66462210416665	0.11266173476097031	0.2075745262189663	0.9717099102024331	-0.005433800950643385	-0.9777927078333849	0.20950392434292425	0.9936185421618688	-0.028883153789512384	-0.10903190404323776
29377	133.6690566736111	0.11259566200624022	0.20726216979696963	0.9717842403890017	-0.006673321865251652	-0.9778236821984474	0.20932346573462046	0.9936184799371737	-0.030053943217525084	-0.10871557765296802
29378	133.67349124305554	0.11247698611898264	0.20698576604346822	0.9718568928854645	-0.007933419728288718	-0.9778451204645666	0.2091793040313797	0.993622658983281	-0.03123800632300684	-0.10834296708120378
29379	133.67792581249998	0.1123111713306182	0.20672672447039053	0.971931202392478	-0.009187172832109932	-0.9778618449408187	0.20904977413116535	0.9936306137844675	-0.03240792493637248	-0.10792557505809725
29380	133.68236038194445	0.11210514401504025	0.2063943668975103	0.972025617974312	-0.010428735405338932	-0.9778935546458438	0.20884309244014174	0.9936416246128242	-0.03354938293161366	-0.10747446553342532
29381	133.68679495138886	0.11195395139151196	0.20611379620216175	0.9721025747229357	-0.011676110894315073	-0.9779120797620806	0.20869027933707343	0.9936447962940332	-0.03471407885189802	-0.10707451390155165
29382	133.69122931770832	0.11183886003058433	0.20583924076873272	0.9721739948933067	-0.012856815115572053	-0.9779299667012012	0.2085370051882188	0.9936431812739135	-0.03582160224695284	-0.10672413560351629
29383	133.69566368402775	0.11172343266346686	0.20556480482515616	0.9722453320078669	-0.014037483846529489	-0.9779464949321659	0.20838330570645433	0.9936401882176216	-0.036929176366209814	-0.10637392674787916
29384	133.7000980503472	0.11160766945527582	0.20529048876400618	0.97231658596457	-0.015218115398268551	-0.977961664431331	0.20822918111164326	0.9936358171294384	-0.03803679962531034	-0.10602388783560568
29385	133.70453241666667	0.11149157057161	0.20501629297769072	0.9723877566614881	-0.016398708081900748	-0.9779754751769969	0.20807463162426024	0.9936300680156173	-0.03914447043980415	-0.10567401936742549
29386	133.70896678298612	0.11137513617854752	0.20474221785844396	0.9724588439968119	-0.017579260208601254	-0.9779879271494074	0.20791965746538676	0.9936229408843822	-0.0402521872251799	-0.10532432184382101
29387	133.71340114930558	0.1112583664426465	0.20446826379832744	0.9725298478688518	-0.018759770089602477	-0.9779990203307501	0.20776425885671151	0.9936144357459282	-0.04135994839686067	-0.10497479576503105
29388	133.717835515625	0.11114126153094563	0.20419443118923103	0.9726007681760365	-0.019940236036190512	-0.9780087547051558	0.20760843602053156	0.9936045526124216	-0.04246775237019885	-0.10462544163105125
29389	133.72226988194447	0.11102382161096061	0.2039207204228662	0.9726716048169171	-0.02112065635973641	-0.9780171302587006	0.20745218917974798	0.9935932914980011	-0.04357559756050698	-0.10427625994162437
29390	133.72670445138888	0.1109077301459943	0.2036994142863579	0.972731218792354	-0.0220348477134677	-0.9780249249942546	0.20732031153803382	0.9935864033289243	-0.04442740943806913	-0.1039820388841966
29391	133.73113902083335	0.11070598793446838	0.20351242935406014	0.972793336394664	-0.022870988635462896	-0.9780289967728593	0.20721051940070778	0.9935900070523505	-0.04518819060200604	-0.10361913585736421
29392	133.73557359027777	0.11054297500149206	0.2034150156913401	0.9728322476506992	-0.023596564131065756	-0.9780180918005941	0.20718063199038014	0.9935911899966847	-0.045857861943364386	-0.10331313400993758
29393	133.74000815972224	0.11042123382462182	0.20329438707574582	0.9728712881487177	-0.024280155191046617	-0.9780132138178502	0.20712466695586743	0.9935882573705002	-0.046492427137945	-0.10305740649888295
29394	133.74444272916668	0.1103521508362334	0.2031369464311126	0.9729120123631224	-0.025210311159137914	-0.9780034830573231	0.2070594777811528	0.9935727668455273	-0.047376873286314826	-0.10280364225325789
29395	133.74887606250002	0.11017696651165788	0.20303319676950016	0.9729535225589383	-0.025588350325512765	-0.9780092548427649	0.20698582987615058	0.9935825443202532	-0.04770134643233213	-0.10255880835225606
29396	133.75330939583336	0.11000173721777944	0.2029295027164094	0.972994981865961	-0.025966372993544422	-0.97801489541423	0.2069120871806509	0.993592152385792	-0.048025839661206646	-0.10231399436150146
29397	133.75774272916667	0.10982646298586586	0.20282586429034385	0.9730363902767919	-0.026344379095777876	-0.9780204047707115	0.20683824970781253	0.9936015910404291	-0.048350352915035394	-0.10206920032467842
29398	133.7621760625	0.10965114384718998	0.20272228150979502	0.9730777477840434	-0.026722368564768884	-0.9780257829112272	0.20676431747080984	0.9936108602824807	-0.04867488613591818	-0.10182442628546395
29399	133.76660939583334	0.10947577983303598	0.20261875439324592	0.9731190543803353	-0.027100341333068236	-0.9780310298348168	0.20669029048283505	0.9936199601102927	-0.048999439265944716	-0.10157967228753573
29400	133.77104272916668	0.1093003709746952	0.2025152829591697	0.9731603100582975	-0.02747829733323269	-0.9780361455405447	0.2066161687570973	0.9936288905222416	-0.04932401224720385	-0.10133493837456675
29401	133.7754760625	0.10912491730346759	0.20241186722602972	0.9732015148105677	-0.027856236497819188	-0.9780411300274973	0.20654195230682307	0.9936376515167333	-0.04964860502177786	-0.1010902245902271
29402	133.77990939583333	0.10894941885065794	0.2023085072122779	0.9732426686297944	-0.02823415875939507	-0.9780459832947855	0.2064676411452541	0.9936462430922051	-0.049973217531752524	-0.10084553097817955
29403	133.78434272916667	0.10877387564758223	0.20220520293635766	0.973283771508634	-0.02861206405052328	-0.9780507053415435	0.2063932352856506	0.9936546652471235	-0.05029784971920347	-0.10060085758208709
29404	133.78877729861108	0.10842122198010001	0.20211673647778777	0.9733414937522753	-0.028583317215841245	-0.9780746934653448	0.20628351359139327	0.9936940336951211	-0.05018683929318942	-0.10026688665994926
29405	133.79321186805555	0.10803640027254054	0.20204616586097046	0.9733989331600035	-0.028509446035963174	-0.9780974818694846	0.20618566256482512	0.9937380679549687	-0.05002662112770168	-0.09990990679442896
29406	133.7976464375	0.1076808442907896	0.20199632666802372	0.9734486734211762	-0.028332748763524516	-0.9781206898129382	0.20609990661658414	0.9937817120073832	-0.04977348865095517	-0.0996017505227067
29407	133.80208100694443	0.10735249648732384	0.20199889543069616	0.9734844054953927	-0.027950613325830025	-0.9781426650931494	0.20604778557213632	0.9938280559093958	-0.049329230373580786	-0.09936006400008579
29408	133.80651557638888	0.10697484284380802	0.20202489705575702	0.9735205822005785	-0.027444640544549113	-0.9781660736171435	0.2060046701650272	0.9938828777597101	-0.048755239657209404	-0.09909466131959377
29409	133.81098464583334	0.10664993199987549	0.20202735231053828	0.9735557205023325	-0.026843379709780367	-0.9781981982641293	0.205931342632849	0.9939342156149866	-0.04809608956250934	-0.09890167439743675
29410	133.81541921527776	0.10634405622688817	0.20203858022271148	0.9735868496476334	-0.026327332277253968	-0.9782237580358931	0.20587654259117957	0.9939807912029164	-0.04752569111255187	-0.09870914549269882
29411	133.81985378472223	0.10598293611671514	0.20207531402692072	0.973618603310866	-0.025694231828515633	-0.9782496638894401	0.20583343156771142	0.994035926766645	-0.04683121353454992	-0.0984856016687648
29412	133.82428835416664	0.10565372758214361	0.20209082061099543	0.9736511644694791	-0.025043006098451673	-0.9782800877306288	0.20576908853203904	0.9940875905540472	-0.04612342327416361	-0.0982979762351252
29413	133.8287229236111	0.10531374310094523	0.20214198913026535	0.9736773755944665	-0.024273397315892245	-0.9783079672464037	0.2057287617348495	0.9941427551900245	-0.0453005237571191	-0.09812260111981191
29414	133.83315749305555	0.1049707046903483	0.2021435188573763	0.9737141002064053	-0.023427085848005236	-0.97834909135897	0.20563128917007772	0.9941993375603718	-0.04439654514751638	-0.09796235998322339
29415	133.8375908263889	0.10475601980119789	0.2021999834414865	0.9737254967451937	-0.02240034777253131	-0.9783844757097037	0.20557733851258594	0.9942456440614067	-0.04334725350597522	-0.09796231356194096
29416	133.84202415972223	0.10454127571685316	0.20225622195579793	0.9737368958561957	-0.021373572978710974	-0.9784187790338326	0.20552338847943227	0.9942908488212171	-0.042297913826936116	-0.09796220922515225
29417	133.84645749305557	0.10432647267470538	0.20231223433814138	0.9737482975268111	-0.02034676260160203	-0.9784520012934369	0.20546943913025648	0.9943349517898322	-0.041248527270401916	-0.09796204697297267
29418	133.8508908263889	0.1041116109122101	0.20236802052659728	0.973759701744435	-0.019319917776301442	-0.9784841424517899	0.20541549052469718	0.9943779529184974	-0.040199094996426536	-0.09796182680558158
29419	133.85532415972222	0.10389669066689024	0.20242358045949593	0.9737711084964612	-0.018293039637951453	-0.9785152024733614	0.20536154272239285	0.9944198521596767	-0.03914961816512158	-0.0979615487232226
29420	133.85975749305555	0.10368171217632807	0.20247891407541901	0.9737825177702795	-0.01726612932171054	-0.9785451813238155	0.20530759578297994	0.9944606494670523	-0.0381000979366275	-0.0979612127262029
29421	133.8641908263889	0.10346667567817523	0.20253402131319675	0.9737939295532771	-0.01623918796279327	-0.9785740789700115	0.20525364976609473	0.9945003447955241	-0.037050535471152925	-0.09796081881489388
29422	133.86862415972223	0.10325158141014554	0.2025889021119106	0.9738053438328396	-0.015212216696441494	-0.978601895380005	0.20519970473137256	0.9945389381012112	-0.03600093192894705	-0.09796036698973076
29423	133.87305749305557	0.10303642961001727	0.2026435564108919	0.9738167605963485	-0.014185216657930351	-0.9786286305230455	0.2051457607384473	0.9945764293414497	-0.034951288470303446	-0.09795985725121331
29424	133.87749206249998	0.10285471232348063	0.2026054878107864	0.9738438912175849	-0.013086744789052793	-0.9786759520714026	0.20499297048425782	0.9946102981890345	-0.03382893947623666	-0.09800998719637133
29425	133.88192663194445	0.10266533485508712	0.202632932691669	0.9738581640094548	-0.011880914934874412	-0.9787117783227659	0.2048953362880646	0.9946449984187337	-0.032605974315489124	-0.0980723078118107
29426	133.8863612013889	0.1024567543160125	0.20256934102153892	0.9738933594460575	-0.010690998698341342	-0.9787648388918125	0.20470733425042761	0.9946800068574116	-0.031385541690143084	-0.09811540007030478
29427	133.89079577083334	0.10219494623546387	0.20249668132439577	0.9739359768570708	-0.009494733546210372	-0.978818805782722	0.20450817949649958	0.9947190774278017	-0.03014696499968333	-0.09810768319805918
29428	133.89523034027778	0.10192603049184785	0.20235661477107122	0.9739932673106972	-0.00828078900956016	-0.9788858901669394	0.2042396694216334	0.994757514594162	-0.028882771516446328	-0.09809828065758708
29429	133.89966212847222	0.10163990690421823	0.20219534043074375	0.9740566583277368	-0.006897066787729518	-0.9789605553336709	0.20393298303736065	0.9947973460932772	-0.027445863238135932	-0.09810690493989754
29430	133.90409391666665	0.10135401157403247	0.20203364194823134	0.9741199986957381	-0.005513240411447011	-0.9790331683727825	0.20362627386002086	0.9948351464026672	-0.026008897459993657	-0.0981150790393559
29431	133.9085284861111	0.10100113357785126	0.2018811943140927	0.9741882540855771	-0.004187437678309178	-0.9791006197850729	0.20333332659005157	0.9948774981783837	-0.02461624908067481	-0.0980449075654562
29432	133.91296305555557	0.10057486852865845	0.20171004948533425	0.9742678028945981	-0.0028620298465574685	-0.9791703040893075	0.20302050235089766	0.994925376400462	-0.023207143862988052	-0.09790262441897091
29433	133.91739762499998	0.10014110294619147	0.20153318158178982	0.9743490833485922	-0.0015643137554948706	-0.9792385406438704	0.2027052871538811	0.9949720158995401	-0.02182331870235007	-0.09774676637935908
29434	133.92183219444445	0.0996871541693147	0.20132934724825804	0.9744377687827037	-0.0002564851688183497	-0.9793106763314735	0.20236238148072483	0.9950187965606386	-0.020422858756367863	-0.09757305637949437
29435	133.9262667638889	0.09922108183988783	0.2011742295052856	0.9745173709593262	0.0010297134634163348	-0.9793702924663598	0.20207120013633897	0.9950648806026197	-0.01904624942900208	-0.09738133175297364
29436	133.93073039583334	0.09878528668992563	0.20099462177711633	0.9745987015947968	0.002088734407967071	-0.979428841219942	0.20177904295326365	0.9951065793783913	-0.01789712276417584	-0.09717298325461576
29437	133.93516077777778	0.0984513214044484	0.20081757796046557	0.9746689887832743	0.003123455472379619	-0.9794847084305134	0.20149429266533667	0.9951369661205588	-0.01679304418158329	-0.0970588086032656
29438	133.93959115972223	0.09812405587440313	0.2006586234202396	0.9747347262234232	0.004061342001996856	-0.979534006873912	0.20123775709016914	0.9951659033346651	-0.015787533836339362	-0.09693079291673323
29439	133.94402154166667	0.09776928342537722	0.20058720822205467	0.9747850732936828	0.0047437612446430966	-0.9795604474853647	0.20109407363601287	0.995197801418262	-0.01503667582793577	-0.09672246084702085
29440	133.94845192361112	0.09740439802114881	0.20052678164003815	0.9748340336135306	0.0053041871448972315	-0.9795823118639524	0.20097353030189383	0.9952307515570796	-0.014405003587739912	-0.09647925697665632
29441	133.95288230555556	0.09699709518933258	0.20050446606160383	0.9748792348871644	0.005751196854530605	-0.9795944565980955	0.20090202671208343	0.9952680479446592	-0.013880190619491601	-0.09617095740812087
29442	133.9573093125	0.09658670590871994	0.20049487463811314	0.9749219525098151	0.006021925876981941	-0.9796013252150081	0.2008605985397143	0.9953063571837741	-0.013529555825948184	-0.09582383038011988
29443	133.96173631944444	0.09617630509159057	0.2004851384985245	0.974964526318859	0.006292671730875123	-0.9796080977747024	0.20081926465535269	0.9953444231126314	-0.013178923152389358	-0.09547667444526275
29444	133.96616670138886	0.09573646925156777	0.20048487206147497	0.975007868957855	0.00637602349228433	-0.9796104407355548	0.2008052059243426	0.9953862942494583	-0.013007708344893305	-0.09506274109210572
29445	133.97059708333333	0.09526670332164995	0.20048892291628295	0.9750530483138309	0.006436562381117582	-0.9796116496335603	0.20079737689255042	0.9954309749565455	-0.012853314361817372	-0.09461483185514619
29446	133.97502746527775	0.09483076551908858	0.20053039750868448	0.9750870143664476	0.006358107906767265	-0.9796032540281618	0.20084083041374473	0.9954731037928196	-0.012846181239795538	-0.09417152039042792
29447	133.97945784722222	0.09439269131887511	0.20052191293818572	0.9751312641163705	0.006169242138657129	-0.9796037239927631	0.200844428329355	0.9955159266817455	-0.012942425241099934	-0.09370450016869186
29448	133.98388822916664	0.09397758283041778	0.20059158113754746	0.9751570291507368	0.005808294108822461	-0.9795857522208712	0.20094282212961784	0.9955573703433156	-0.013220121883270911	-0.09322419606783461
29449	133.9883457361111	0.09355503951156684	0.20059107079847824	0.9751977629680604	0.005380167347172315	-0.9795812711582362	0.20097658320145337	0.9955995723087199	-0.013555645020955593	-0.09272397805724386
29450	133.99280324305556	0.09313247565029494	0.2005907029024351	0.9752382846711642	0.004952025211978721	-0.9795766460085903	0.20101012919965305	0.9956414110640174	-0.013891166389770804	-0.09222372835005405
29451	133.997233625	0.09269222438863572	0.20056705188029894	0.9752850912620027	0.004426836228649367	-0.9795753669210575	0.2010286139893539	0.9956849675770404	-0.014316362021177403	-0.09168689720776396
29452	134.00166400694445	0.09234133939431918	0.20049776471957173	0.975332621919988	0.003937085169517249	-0.9795835605576084	0.20099887374223321	0.9957196274048388	-0.014720537616999924	-0.09124543480654451
29453	134.0060943888889	0.09195566051048698	0.20042410238838965	0.9753841990117988	0.003377051796723728	-0.9795915227962697	0.20097025647306083	0.9957573760817654	-0.015186429715173507	-0.09075582808428218
29454	134.01052477083334	0.09152871205702619	0.20034369636709068	0.9754408737566584	0.0028357577541359563	-0.9796010742186696	0.2009320628162382	0.9957983999520897	-0.015624938899075343	-0.09022975084337936
29455	134.0149551527778	0.09110760971231542	0.2001948424732931	0.9755108551418595	0.002365282589083702	-0.9796256355236648	0.2008183748144823	0.9958382443403058	-0.015988723274530183	-0.08972486744079544
29456	134.01941269097222	0.09081686152085493	0.2000171838515701	0.9755744071200253	0.001953580143772279	-0.9796564860804956	0.20067225220502632	0.9958656943524682	-0.016318561349059842	-0.08936007703316534
29457	134.02387022916668	0.09052602869703627	0.19983961594340383	0.9756378252343113	0.0015419210030712355	-0.9796871728062371	0.20052597317690032	0.9958928961529768	-0.01664846354819374	-0.08899532602064453
29458	134.0283006111111	0.09027484967726511	0.1995720921052335	0.9757158559583253	0.0009827433853414585	-0.9797335188119888	0.20030293640313185	0.9959164049914961	-0.017123439170291733	-0.08864142428794541
29459	134.03273099305557	0.09009622732618819	0.19927850524420507	0.9757923688824499	0.0003983274089432687	-0.9797841903922286	0.20005694587471942	0.995932985274041	-0.01763569122774815	-0.08835423723883551
29460	134.03716137499998	0.08987088861151776	0.1989669025957246	0.975876731483869	-0.00014982192892534015	-0.979839023320619	0.19978855305418494	0.9959534130337452	-0.018101382531693334	-0.08802919411692645
29461	134.04159175694446	0.08969894681364435	0.19858596754149138	0.9759701391108917	-0.00034567880052959246	-0.9799140049999644	0.1994202179095615	0.9959688646974313	-0.018225155706875714	-0.08782860725737529
29462	134.04602213888887	0.0895156527418502	0.19827126714153748	0.9760509477175306	-0.000485705197273479	-0.9799763743795975	0.19911320837222318	0.9959852970825734	-0.01829782183507371	-0.0876269234392607
29463	134.05045183333334	0.0895164418397133	0.19797048970145212	0.9761119258813123	-0.0005352814390776432	-0.9800367705449007	0.19881559761171258	0.9959852007505624	-0.018319759476823412	-0.08762343464264072
29464	134.05488152777778	0.08951721572269976	0.19766969371943727	0.9761728127099831	-0.0005848579185676805	-0.9800970739130997	0.19851796807391334	0.9959851033175502	-0.018341698172308497	-0.08761995250903315
29465	134.0593160972222	0.08960870374301198	0.19732857979922674	0.9762334310030147	-0.0006307737301466079	-0.9801651940957947	0.19818121608178438	0.9959768482941754	-0.018374544282070058	-0.08770686281259743
29466	134.06375066666666	0.08969869002681852	0.19702559197346925	0.976286362249815	-0.0006893232674203077	-0.9802252358263206	0.19788383431363818	0.9959687092679698	-0.018422897620581264	-0.08778910526002565
29467	134.0681852361111	0.08984877500925027	0.19670963983302897	0.9763362715919641	-0.0007727530207098288	-0.9802871146667692	0.1975767589345213	0.9959551197127842	-0.018506496563665802	-0.08792558844177795
29468	134.07261980555555	0.09005636597927887	0.1964529200969714	0.9763688345763497	-0.000990567447600032	-0.9803341763072192	0.19734214334545483	0.9959361775348549	-0.018739075468636034	-0.0880907334958837
29469	134.077054375	0.09022108120242442	0.19620071349132237	0.9764043406971119	-0.0011869116723221924	-0.9803807771148424	0.19710941911633714	0.9959210549774253	-0.018942330616737325	-0.08821814078441331
29470	134.08149288194446	0.09042402093041117	0.1959771100640195	0.9764304730853763	-0.001396974687604058	-0.9804210900022646	0.19690742682919088	0.9959023771939189	-0.01916920994006169	-0.08837984210087213
29471	134.08592745138887	0.09055312191607544	0.19575858234209417	0.9764623441539702	-0.0014589498781727387	-0.9804634373230541	0.1966960079358883	0.9958905580316072	-0.019236047205067604	-0.08849842321430956
29472	134.09036202083334	0.09063321847439462	0.19558496767058112	0.9764897030334065	-0.0014288377607635794	-0.9804986636407199	0.19652055623118936	0.9958833155202602	-0.019206535868301844	-0.08858629040835575
29473	134.09479659027775	0.0906521113061448	0.19546078344723358	0.9765128144832161	-0.0012867022150091566	-0.9805263046381753	0.19638357953254235	0.9958817897286547	-0.019059067311863565	-0.08863527988365372
29474	134.09923115972222	0.09066315096049539	0.19532975505457478	0.9765380073751528	-0.0012100208818656556	-0.980554067616938	0.19624539823736672	0.9958808808825379	-0.018973857546556346	-0.08866376837481654
29475	134.10366572916666	0.09062960395502812	0.19521853282447496	0.9765633616559727	-0.0011082239051883034	-0.980578473165729	0.19612401638693683	0.9958840528529065	-0.01885689279353575	-0.08865309282502432
29476	134.1080975173611	0.09058597065217355	0.19513605697415706	0.9765838935747316	-0.0009042201662242178	-0.9805990378532637	0.196022216463198	0.9958882288223387	-0.018639909598289355	-0.0886520697066519
29477	134.11252930555554	0.0905423544969051	0.19505356989104067	0.9766044168008446	-0.0007002118386828661	-0.9806195494091892	0.19592041501563842	0.9958923595176026	-0.0184229256438807	-0.08865102405038705
29478	134.11696387499998	0.09050118737357737	0.19505601080260512	0.9766077450715548	-0.0004178665808584887	-0.980624393879031	0.19589697168895634	0.9958962598943193	-0.018137000280011542	-0.08866616462523702
29479	134.12139844444442	0.0904344180360177	0.19502865469907066	0.9766193935616668	-6.542148537438897e-05	-0.9806364762160608	0.1958369148924092	0.995902410758462	-0.017774289319636292	-0.08867052996720959
29480	134.12583301388887	0.09032384789380402	0.19506565265214426	0.9766222369253376	0.0003823251530039053	-0.980637335706367	0.19583224873905647	0.9959123738206764	-0.017314935001648647	-0.08864951605482319
29481	134.13026758333334	0.0903038924498788	0.19512600444170483	0.9766120260364485	0.0006572423471952636	-0.9806300443913543	0.19586802717520793	0.9959140399858303	-0.017045774480108557	-0.0886829551349948
29482	134.13470215277775	0.09030509670152176	0.1951333480151124	0.9766104474160321	0.0009020101750790248	-0.9806327273919289	0.1958536196895818	0.9959137391799417	-0.01680566750475293	-0.088732145541212
29483	134.139138875	0.0903091396730994	0.19524280265130914	0.9765881974017332	0.0013292377771916824	-0.9806178804785656	0.19592551036722464	0.9959128939914557	-0.01639574635653101	-0.08881828124308644
29484	134.1435755972222	0.09031313492455528	0.19535225733438477	0.976565938999748	0.0017564654366990396	-0.9806028496450909	0.195997362474848	0.995911869840534	-0.015985831923537218	-0.08890444695538946
29485	134.14801231944443	0.09031708245513809	0.1954617120437706	0.976543672214259	0.002183693073317491	-0.9805876348943294	0.19606917599894946	0.9959106667273695	-0.015575924282801728	-0.08899064266192869
29486	134.15244904166664	0.09032098226410602	0.19557116675889563	0.976521397049451	0.0026109206067533256	-0.9805722362291405	0.1961409509260323	0.9959092846521878	-0.015166023511363098	-0.08907686834650458
29487	134.15688576388888	0.09032483435072618	0.19568062145919138	0.97649911350951	0.003038147956722914	-0.9805566536524177	0.19621268724260874	0.9959077236152489	-0.01475612968624889	-0.08916312399291348
29488	134.1613224861111	0.09032863871427493	0.19579007612408664	0.9764768215986238	0.0034653750429323336	-0.9805408871670899	0.19628438493519654	0.9959059836168462	-0.014346242884495234	-0.08924940958494487
29489	134.16575920833333	0.09033239535403693	0.19589953073301294	0.9764545213209816	0.0038926017850981973	-0.9805249367761196	0.1963560439903223	0.9959040646573066	-0.013936363183127118	-0.08933572510638371
29490	134.17019593055554	0.09033610426930604	0.19600898526539948	0.9764322126807746	0.004319828102926704	-0.9805088024825046	0.19642766439451853	0.9959019667369907	-0.013526490659178221	-0.08942207054100765
29491	134.17463265277777	0.09033976545938568	0.19611843970067758	0.976409895682195	0.0047470539161345755	-0.9804924842892774	0.19649924613432637	0.9958996898562931	-0.013116625389670398	-0.08950844587259105
29492	134.17906722222222	0.09028304687613255	0.19621214253420027	0.9763963163433692	0.005444934413279085	-0.9804827215533684	0.19652985886255256	0.9959012622423956	-0.01242690055639057	-0.08958932975842854
29493	134.18350179166666	0.09021018467945813	0.1963989584560089	0.9763654908370598	0.006130691247035778	-0.9804536100287895	0.19665485807970176	0.995903879500894	-0.011754475696899792	-0.08965096260587174
29494	134.1879363611111	0.09015610727635316	0.19656908004509885	0.9763362500137943	0.00681174439320435	-0.9804272706741649	0.19676373409937475	0.995904351059426	-0.01108889934264547	-0.08973048452043675
29495	134.19237093055557	0.09012327363256882	0.1967326863280317	0.9763063277885203	0.0074192304935209626	-0.9804009449985881	0.19687290840732632	0.9959029825081525	-0.010499389317086995	-0.089816547781214
29496	134.19680549999998	0.09013017175026178	0.19689102524116858	0.9762737711931784	0.008036800413769613	-0.9803753199113348	0.19697624716665077	0.995897566007357	-0.009907385539574438	-0.08994376983645219
29497	134.20121350694444	0.0900623720837847	0.1971197985270488	0.9762338624342518	0.008642789765454005	-0.9803351219059866	0.1971505793616762	0.995898625021499	-0.00931846480006858	-0.08999497149317731
29498	134.20564807638888	0.09008740302016777	0.1973735401675875	0.9761802832770161	0.009298844612223505	-0.9802897414067717	0.19734628038430896	0.9958904514583717	-0.008701065127802884	-0.09014710289123068
29499	134.21008264583332	0.09011280943958544	0.19771379683652707	0.9761090800291684	0.009934795338866662	-0.9802262271791083	0.19763057301891768	0.995882011794811	-0.008111602227390529	-0.09029518532471592
29500	134.21451721527777	0.09017983835106108	0.19802061419468356	0.9760406923427615	0.010464054681349855	-0.9801681396732335	0.19789118608249975	0.9958705238707503	-0.007632451996122408	-0.09046350292756006
29501	134.21895178472224	0.09035906004331037	0.19836703828846755	0.9759537685714169	0.010947734943533457	-0.9801011818985692	0.19819641858679926	0.9958490786096533	-0.007224358911991233	-0.09073269130040812
29502	134.22338635416665	0.09049101209719279	0.1986971357616604	0.9758743899548437	0.011321253812338573	-0.9800365537061408	0.1984947924050086	0.995832920695908	-0.006913873003111705	-0.09093400034285593
29503	134.2278333923611	0.09067650024007791	0.19904303565495607	0.9757866786657171	0.01174898369653097	-0.9799687776424272	0.19880431642221985	0.9958110933737936	-0.006562377866852412	-0.09119869248198054
29504	134.23228043055556	0.09086183266747343	0.199388978396286	0.9756988073470182	0.01217677055272969	-0.9799007393999866	0.19911370415485216	0.9957890608071642	-0.00621097556308234	-0.09146349085476974
29505	134.23671499999998	0.09105792656101509	0.19972686183188393	0.9756114158173819	0.012491576779448501	-0.9798334103044477	0.19942529568918493	0.9957672491701923	-0.005972329021685128	-0.0917165021470227
29506	134.24114956944445	0.09137872754040015	0.1999592669779281	0.9755338126906452	0.012491155467291105	-0.979785475344556	0.19966069552852483	0.9957378667039779	-0.006059195779309693	-0.09202927229049851
29507	134.24558413888886	0.09169073878452227	0.2002097050677844	0.9754531677214541	0.012410004822134828	-0.9797332882255875	0.19992167397006375	0.9957101989040099	-0.006225587470163568	-0.09231707241452286
29508	134.25001870833333	0.09204499765561093	0.20036630346786416	0.9753876474721228	0.012296476177772152	-0.9796999957140682	0.2000917666258767	0.9956789216811752	-0.006423615218751695	-0.09264028328612439
29509	134.25445327777777	0.09239286897729294	0.20048185951572484	0.9753310113839619	0.012470260578129938	-0.9796769397585895	0.2001938718002089	0.9956445401664483	-0.006333854305404668	-0.09301522416453978
29510	134.2588850659722	0.09276156936026604	0.20052666867688937	0.9752868021249799	0.012598228624899553	-0.9796680726846458	0.20022924860735586	0.9956086459474602	-0.006286693224627441	-0.09340182869175584
29511	134.26331685416667	0.09313025024165825	0.2005714949010823	0.9752424477652064	0.012726209953735036	-0.9796591976042408	0.20026457532381634	0.995572599095686	-0.006239549868391994	-0.09378842117927072
29512	134.26775142361112	0.09351320859017796	0.20051339670368376	0.9752177487933253	0.012788117457735022	-0.9796710214020193	0.2002027818912904	0.9955359078762842	-0.006250405384897075	-0.09417636944301583
29513	134.27218599305556	0.09384564059349891	0.20043946807746524	0.9752010128062923	0.012836629441094255	-0.9796860715172916	0.20012601584903458	0.9955040013411235	-0.006262660124803117	-0.09451223413914911
29514	134.2766205625	0.09420278685667803	0.20035644465118965	0.9751836391342761	0.012928540937157009	-0.9797032224965353	0.20003611838650662	0.9954690792674936	-0.006236258224208016	-0.09488109034833792
29515	134.28105513194447	0.09457537280660173	0.2002466239832152	0.9751701330751558	0.013036280551232692	-0.9797259387827921	0.19991783378569802	0.995432345389621	-0.006194712221020034	-0.09526841707836287
29516	134.28548970138888	0.09495692173221378	0.20016908408420137	0.9751489736404557	0.012908149769222714	-0.9797405283867472	0.19985463894038769	0.9953976907169705	-0.00639021230862749	-0.09561695718842506
29517	134.28993677083332	0.09540162678805036	0.2001073217555241	0.9751182437971431	0.012780044903142801	-0.9797517545824629	0.19980783229107596	0.995356820471165	-0.00659993730396125	-0.09602729179309688
29518	134.2943838402778	0.09584630587071499	0.20004546522276082	0.9750873281377144	0.012651918357216985	-0.9797629512794632	0.19976107794572656	0.9953157361424664	-0.006809636111094554	-0.0964376184028557
29519	134.2988184097222	0.09620061556533574	0.20000489714271125	0.9750607584575353	0.012524619907732081	-0.9797698749303809	0.19973513981038132	0.9952831634570221	-0.007002378013161529	-0.09675945039707218
29520	134.30325297916667	0.09660388491816102	0.19993984962674616	0.9750342280914823	0.01240499058828728	-0.9797817556176129	0.19968431978343382	0.9952456006570556	-0.00719499062558736	-0.09713097591744102
29521	134.3076875486111	0.09695392546772129	0.19995444665043138	0.9749964900455382	0.01225309096477046	-0.9797771245300704	0.19971641897799933	0.9952134434874804	-0.007416570117413237	-0.09744329833028481
29522	134.31212211805556	0.09726248157935598	0.19991524070471442	0.974973797704842	0.01219796293484957	-0.9797842663450844	0.19968475435762595	0.9951840128223856	-0.007529140495533512	-0.09773480785335925
29523	134.3165566875	0.09755325815543557	0.20000112466900438	0.9749271316126108	0.012090953834022	-0.9797653969006437	0.19978382284736795	0.995156857313782	-0.007701763905645461	-0.09799751106073668
29524	134.32099519444446	0.09785872966487641	0.20002720581460304	0.9748911662141468	0.011960327939811694	-0.9797585374407084	0.1998253208870597	0.9951284437618839	-0.007894634003337234	-0.09827031683069187
29525	134.32542976388888	0.0981840030523903	0.20009089080828796	0.9748453913109268	0.01181203422867461	-0.9797437517573625	0.19990662004993293	0.9950981747506066	-0.008112725063345285	-0.09855864396417863
29526	134.32986433333335	0.09850100564476638	0.2001199552458785	0.9748074452933551	0.0116319224779614	-0.9797357622393387	0.19995633165461074	0.9950689675929184	-0.008357015118425664	-0.09883273765242984
29527	134.33429890277776	0.09883125689496823	0.2001648670455638	0.9747647965848956	0.011477446687225216	-0.9797246567365833	0.20001966203332683	0.9950380147904416	-0.00858038361707337	-0.09912480082643876
29528	134.33873347222223	0.09915547744561858	0.2001633636027806	0.9747321781719083	0.011241318322293744	-0.9797223100101269	0.2000445651118728	0.9950084542630322	-0.008878239670255613	-0.09939493349989831
29529	134.34316804166667	0.09951913820758367	0.2000676289158243	0.9747147710948165	0.010904567014669497	-0.9797382025483873	0.1999853616779947	0.9949758949585878	-0.009273528306734474	-0.0996843524536411
29530	134.347601375	0.09988998981818262	0.19999084837914993	0.9746925928202756	0.01082476239380962	-0.979752489141131	0.19991969523005007	0.9949396034198464	-0.009419160596698034	-0.10003231957928738
29531	134.35203470833335	0.10026082193280624	0.19991401261659603	0.9746702802203883	0.010744932670611669	-0.9797667593989716	0.19985405574754345	0.9949031681562095	-0.009564765358839343	-0.10038028320526005
29532	134.35646804166666	0.10063163449612282	0.199837121639627	0.9746478332984834	0.010665077856986966	-0.97978101331978	0.1997884432402687	0.994866589173113	-0.009710342571432079	-0.10072824327963964
29533	134.360901375	0.10100242745280931	0.1997601754597148	0.97462525205791	0.010585197964849124	-0.9797952509014294	0.1997228577180151	0.9948298664760148	-0.009855892212757563	-0.10107619975051274
29534	134.36533470833334	0.10137320074753942	0.19968317408834046	0.9746025365020371	0.01050529300611733	-0.9798094721417953	0.19965729919056852	0.994793000070394	-0.010001414261098058	-0.10142415256596027
29535	134.36976804166667	0.10174395432499236	0.19960611753699287	0.974579686634255	0.010425362992713716	-0.9798236770387565	0.19959176766771064	0.9947559899617516	-0.010146908694740912	-0.1017721016740667
29536	134.37420137499998	0.10211468812984703	0.19952900581716979	0.974556702457972	0.01034540793656467	-0.9798378655901926	0.19952626315921945	0.9947188361556096	-0.010292375491976511	-0.10212004702291322
29537	134.37863470833332	0.10248540210679294	0.1994518389403759	0.9745335839766176	0.010265427849598954	-0.9798520377939869	0.19946078567486789	0.9946815386575109	-0.01043781463110262	-0.10246798856058953
29538	134.38306804166666	0.1028560962005152	0.19937461691812525	0.9745103311936419	0.010185422743750474	-0.9798661936480259	0.19939533522442593	0.9946440974730217	-0.010583226090418018	-0.10281592623517838
29539	134.38750261111107	0.10313384804047175	0.1992851256260882	0.9744992807039724	0.010544406416366446	-0.9798876674851512	0.19927110830182346	0.9946115949865515	-0.010276079734257187	-0.10316092915248393
29540	134.39193718055554	0.10346684013234059	0.19918922690338942	0.9744835888195648	0.010936921559065834	-0.9799105693315777	0.1991372889718892	0.9945727709624064	-0.009946255470925668	-0.10356676717107455
29541	134.39637175	0.1037799627977314	0.1991024569713591	0.9744680245906838	0.011324085214241454	-0.9799314744555098	0.19901273945532016	0.9945358135410518	-0.009618575747929231	-0.10395190515242742
29542	134.40080631944443	0.10404387534141969	0.19905762494885218	0.9744490412297921	0.0117730842347605	-0.9799443714729226	0.19892315930061985	0.9945030248780242	-0.009224465743915165	-0.1043007322131489
29543	134.40524088888887	0.10431507105076038	0.1989564724988324	0.9744407052265912	0.012211310209306095	-0.9799684899628996	0.1987778724677537	0.9944693307762925	-0.008836330157695802	-0.10465500186181881
29544	134.40965742708335	0.10461719914669593	0.19886275261699224	0.9744274458697754	0.012615427580120795	-0.9799905852496377	0.1986436603796957	0.9944325480542516	-0.008488724501719043	-0.10503260887297156
29545	134.4140739652778	0.10491935363533883	0.19876913589810058	0.9744140597544072	0.013019501503422156	-0.9800125271694423	0.19850929240608764	0.9943955057286539	-0.008141081333926922	-0.10541015596881204
29546	134.4185085347222	0.10519669169857022	0.19864006740046705	0.9744104780218725	0.01327717392129225	-0.9800404367394254	0.1983543773357676	0.9943627973271827	-0.007928806892226647	-0.10573439039842264
29547	134.42294310416668	0.10547415173007155	0.19858783719259748	0.9743911300068306	0.013479354525334835	-0.9800522180148676	0.19828251805370756	0.9943306845905955	-0.007779516906913626	-0.10604701220823182
29548	134.42737767361112	0.1056777829587137	0.19846932218106317	0.9743932134112598	0.013612159441804893	-0.9800770372703758	0.19815072578886503	0.9943072539734698	-0.0076765336130605105	-0.10627396448531345
29549	134.43181224305556	0.10587903025633175	0.19839648264374626	0.9743861999364362	0.01367103326742411	-0.9800919853186886	0.19807272190655756	0.9942850364967682	-0.007650881561048438	-0.10648347388190826
29550	134.4362468125	0.10605540977268976	0.1983177277047744	0.9743830504149599	0.013578698970902222	-0.9801069979167569	0.19800477663142457	0.9942675037394136	-0.007768623598661432	-0.10663854601023887
29551	134.44071581944445	0.10620426182911398	0.19837323453781555	0.9743555380806013	0.013556255600905395	-0.980095303217638	0.19806419299007344	0.9942519211464547	-0.007826648690911566	-0.10677949647218388
29552	134.4451503888889	0.10637073332987454	0.19847564009680274	0.9743165231992268	0.013579499321049517	-0.980074397139985	0.19816602450693946	0.9942338076574617	-0.007848334782597829	-0.10694643216155425
29553	134.44958495833336	0.1065307917323118	0.19859319179323884	0.9742750815792534	0.013610216424753173	-0.9800504662102267	0.1982822374545654	0.9942162503307609	-0.007863069024951428	-0.10710844842378525
29554	134.45401952777777	0.10659242444842913	0.1986722036848102	0.9742522314745946	0.01341198226807553	-0.9800326916177663	0.19838357314071406	0.9942123383773944	-0.00807953237864065	-0.10712864871123756
29555	134.45845409722224	0.10668234350176074	0.19866822474012513	0.9742432006760834	0.013143587597721816	-0.9800311312645053	0.19840924337710436	0.9942062782390951	-0.008361712206309707	-0.1071632310027349
29556	134.46288866666666	0.1067766474190857	0.1986843722225598	0.9742295765375163	0.012666188552778243	-0.9800235427593329	0.1984777652660161	0.994202351251236	-0.008853014852220072	-0.10716020200867782
29557	134.4673330173611	0.106886033779415	0.19865667616808297	0.9742232294483413	0.012022014626069203	-0.9800230320570712	0.19852034606557403	0.9941985953255197	-0.009506926501981719	-0.10713902837551575
29558	134.47177736805557	0.1069954021614242	0.19862890840829767	0.9742168858425948	0.011377840281127831	-0.9800220988242359	0.1985629133717499	0.9941944119068726	-0.010160834644259695	-0.10711782658586644
29559	134.47620775	0.10713124929803504	0.1986423270085188	0.9741992205624491	0.01061074189274607	-0.9800109264723373	0.19866050475954417	0.9941882656621572	-0.010945771579565649	-0.10709753733956812
29560	134.48063813194446	0.10723175845214439	0.19861501015805175	0.9741937321288708	0.009803690416226758	-0.9800070484357292	0.19872109266636384	0.9941857158667509	-0.011758518452925772	-0.10703503917086438
29561	134.48506851388888	0.10743038247406744	0.198524341593749	0.9741903298207412	0.008861414408804403	-0.9800134463253017	0.19873379268831087	0.9941731178502824	-0.012717343133435756	-0.10704242582955337
29562	134.48949889583335	0.10764348606851178	0.198413193494248	0.974189450032401	0.007871974897645833	-0.9800223847013909	0.19873137018450152	0.9941583937774849	-0.013723342581625213	-0.1070549295929824
29563	134.49392927777777	0.10785613825650124	0.19822857865968768	0.9742035126414575	0.006805435449183087	-0.9800441180360744	0.19866356674347657	0.9941432188013662	-0.014797206001565276	-0.10705280568862152
29564	134.4983715347222	0.10798616553749364	0.19801179386280024	0.9742331946427122	0.005755388687584798	-0.9800717278772698	0.19856052910061794	0.9941357369864356	-0.01583469945715544	-0.10697382268357863
29565	134.50281379166665	0.10811596163435047	0.19779486887598208	0.9742628642651903	0.004705321745656382	-0.980098219035827	0.19845740346500093	0.9941271542348843	-0.016872192777862446	-0.10689494994487408
29566	134.5072441736111	0.10818789059841871	0.1976067453059289	0.9742930537253472	0.00357670590503669	-0.9801164931606761	0.19839069284945715	0.9941240302410629	-0.01797871085524581	-0.10674351714858382
29567	134.51167455555554	0.10829738579676502	0.19736194925203285	0.9743305071776337	0.0022481350925139835	-0.9801410090446232	0.1982890523392399	0.994116000333056	-0.01928375939556463	-0.10659040531577663
29568	134.5161049375	0.10837821730501906	0.19700607847446178	0.9743935380829968	0.0008661881270411465	-0.9801853248058848	0.1980807379663928	0.9941093560227239	-0.02062362914950711	-0.10640138245713238
29569	134.52053531944443	0.10841532612420084	0.19671067317390314	0.9744490895479625	-0.0005086590596363053	-0.9802157481342959	0.19793137289344423	0.9941055569341439	-0.021954456700006467	-0.10617035134002023
29570	134.52496570138888	0.10837035936890235	0.19641346784765049	0.9745140403597659	-0.0018247787191386	-0.9802464002750035	0.19777174957643487	0.9941089152567145	-0.023210868056965032	-0.10587124355159439
29571	134.52942323958334	0.10835931292607366	0.19613633957034718	0.9745710828883313	-0.0031308731915760364	-0.9802713538777699	0.19763165333443544	0.9941068639413208	-0.024466488644463734	-0.10560745237985242
29572	134.5338807777778	0.1083478969387221	0.19585921753808308	0.9746280829805418	-0.004436960779152938	-0.9802946180931621	0.19749120263096745	0.9941031368062373	-0.025722143047409916	-0.10534384058428986
29573	134.5383111597222	0.10832416572014449	0.19558807076848206	0.9746851705520597	-0.005898856760299727	-0.9803108096727191	0.19737254096692206	0.9940981232302756	-0.027129744043781826	-0.10503760459075001
29574	134.5427415416667	0.1082611072844693	0.19525946779227332	0.9747580586417428	-0.007320867198670272	-0.980337898653473	0.19719028720287626	0.994095537437424	-0.028484113136475777	-0.10470299778816455
29575	134.5471719236111	0.10815305799953742	0.19499238734602567	0.9748235147566182	-0.008690958726077742	-0.9803523951013091	0.1970625501092195	0.9940962645950193	-0.029785068343458926	-0.10433343865705358
29576	134.55160230555558	0.10804686416328327	0.19467704446145967	0.9748983144432202	-0.009896827500099336	-0.9803799454252253	0.19686852316575507	0.9940965385463899	-0.030919427028698716	-0.10400029366450214
29577	134.5560326875	0.1078796069934673	0.19444598141282166	0.9749629483766754	-0.010867319073599883	-0.980397029385226	0.19673221939676583	0.9941045678252807	-0.0318186279564227	-0.1036517397050486
29578	134.56046967100693	0.10757521825665967	0.1942973604236283	0.9750262089551452	-0.011256641400028473	-0.9804164622561943	0.1966134495944759	0.9941332206708632	-0.0321262551421577	-0.10328137919837133
29579	134.5649066545139	0.10727075795503684	0.19414882995421193	0.9750893376071561	-0.011645925231578444	-0.9804357560294126	0.1964945310295808	0.9941616352048859	-0.03243393479744488	-0.1029110439180495
29580	134.56934363802083	0.10696622616737012	0.1940003900430008	0.9751523343163749	-0.012035170467532738	-0.9804549106998888	0.19637546373284756	0.9941898114199968	-0.032741666842679984	-0.1025407339598976
29581	134.57378062152776	0.10666162297244222	0.1938520407283967	0.9752151990665038	-0.012424377007192736	-0.9804739262626673	0.1962562477350791	0.9942177493089065	-0.03304945119825197	-0.10217044941971554
29582	134.57821760503472	0.106356948449056	0.19370378204877842	0.9752779318412799	-0.012813544749868896	-0.9804928027128292	0.19613688306711746	0.9942454488643878	-0.033357287784535554	-0.10180019039329796
29583	134.58265458854166	0.10605220267603716	0.19355561404250385	0.9753405326244727	-0.013202673594874141	-0.9805115400454905	0.19601736975984482	0.994272910079274	-0.033665176521886435	-0.10142995697643914
29584	134.58709157204862	0.10574738573222334	0.19340753674790387	0.9754030013998876	-0.013591763441542266	-0.980530138255804	0.1958977078441791	0.994300132946461	-0.03397311733065442	-0.10105974926491784
29585	134.59152855555556	0.10544249769647754	0.193259550203289	0.975465338151362	-0.013980814189206566	-0.9805485973389578	0.1957778973510793	0.9943271174589052	-0.03428111013116801	-0.1006895673545154
29586	134.5959589375	0.1049987910948246	0.19329244408987178	0.975506681128525	-0.013708321502911272	-0.9805543960083659	0.19576812404025845	0.994377863686737	-0.03392797557227661	-0.1003073112159269
29587	134.60038931944445	0.10450939562790613	0.19335085283133172	0.9755476584641505	-0.01329104283367536	-0.9805601323033714	0.1957681667625986	0.9944350830526263	-0.03342565850648102	-0.09990791233693624
29588	134.6048197013889	0.10390039095808508	0.1934502628238913	0.975593001498127	-0.01270930595257957	-0.9805636014144923	0.19578942035575947	0.9945065018897365	-0.03274170726165538	-0.09942232296939796
29589	134.60925008333334	0.1033437498286194	0.19350762280224318	0.975640748067025	-0.012008302481146253	-0.9805785215225564	0.19575894309113598	0.9945732099965697	-0.03194625245724594	-0.09901296334852777
29590	134.61368046527778	0.10276853977760857	0.19366265197661403	0.9756707459288525	-0.011250477639286317	-0.9805750884366335	0.1958211497524633	0.9946416711483922	-0.031101015528011457	-0.09859347264530444
29591	134.61811015972222	0.10215077530309448	0.19386785184607674	0.9756948678380781	-0.010311172235951967	-0.9805665926702628	0.1959153824133059	0.9947154863739168	-0.030073466039334276	-0.09816663286618199
29592	134.62253985416666	0.1015327869208377	0.1940724096779984	0.9757187058685834	-0.009371916440137518	-0.980557107702982	0.19601001432427356	0.9947880479591255	-0.02904579719921633	-0.0977398654732815
29593	134.6269744236111	0.10088195621216317	0.19435065754967412	0.9757308301067547	-0.008222896363905696	-0.9805377633232335	0.19615830003458742	0.9948644203539474	-0.02781216652977718	-0.09732044238865889
29594	134.63140899305554	0.1001862571742582	0.19467770569220824	0.9757373134096246	-0.007017015825979251	-0.9805087290848125	0.19635018125121326	0.9949439558901355	-0.026518353925240053	-0.09686744315188855
29595	134.63584356249999	0.09949535652569572	0.1950535151805946	0.9757329553958491	-0.005756212792463169	-0.9804694246296471	0.19658731744620914	0.9950213766769599	-0.025176051757618195	-0.09642938542677304
29596	134.64027813194446	0.098819660931984	0.19545355979651852	0.9757215691867003	-0.004481121930059536	-0.9804235206215975	0.19684928183308217	0.9950952688861182	-0.02382490660676435	-0.09600926864445591
29597	134.64471270138887	0.09814889339870746	0.19589638023756026	0.9757004678355088	-0.0032778808087252603	-0.980365302780262	0.1971626957666417	0.9951663429909662	-0.022549530247584187	-0.09557964460909202
29598	134.6491597395833	0.0974254382457652	0.19637033491608719	0.9756777006509704	-0.00198310373430036	-0.9803011050099597	0.19749888813821534	0.995240850890979	-0.021176285821551455	-0.09511684202392534
29599	134.65360677777775	0.09670132472872084	0.19684325908507297	0.9756544394141184	-0.0006885726638196354	-0.9802349623017329	0.1978356503489887	0.9953132068165265	-0.019802778443630053	-0.09465447851272218
29600	134.6580413472222	0.09600695340435027	0.19731738803061774	0.9756272409474788	0.0006986018892860465	-0.9801680223829989	0.19816699990967604	0.9953804181585126	-0.018343834892843375	-0.09424079195342588
29601	134.66247591666666	0.09520064567751059	0.19779640288522507	0.9756092558336308	0.00206617479827382	-0.9800977404978365	0.19850478581822278	0.9954559598416637	-0.016882004522604733	-0.09371461966529387
29602	134.66691048611108	0.09432819479059595	0.19824346390146008	0.9756032598797002	0.0034868762442705208	-0.9800325854296825	0.19880637110029745	0.9955350487861312	-0.015351238268052873	-0.09313595504440236
29603	134.67134505555555	0.09345944430567213	0.19865695673074674	0.9756027602526315	0.004876309208169759	-0.9799712406238691	0.1990793539235583	0.9956111459192196	-0.013848505067092265	-0.09255628033162011
29604	134.675779625	0.09267886806991718	0.1990766450546229	0.9755916752448611	0.006214580175963515	-0.9799052902224452	0.19936649966155756	0.9956766575583238	-0.012414168834882862	-0.09205369088539367
29605	134.68019616319444	0.09204396789332077	0.19939354642186977	0.9755870651150326	0.007310881897483959	-0.9798550582015061	0.1995760905589746	0.9957281049464928	-0.011237373457915763	-0.09164749018621815
29606	134.6846127013889	0.0914086894018259	0.19970968381864496	0.9755821306742437	0.008407037389344776	-0.9798034649393214	0.19978611517128542	0.9957779738597226	-0.010060431499534318	-0.09124151738034891
29607	134.68904727083333	0.09084701748996359	0.19995871837053686	0.9755835845076478	0.009420641559107754	-0.979763233310009	0.1999381358483966	0.995820300519021	-0.00897316006373393	-0.09089230700492507
29608	134.6934818402778	0.09037174420866712	0.20013602567313202	0.9755913689021891	0.010370113257011131	-0.9797357882983023	0.200025613056282	0.9958541100983219	-0.007959670550225803	-0.09061586530520954
29609	134.6979164097222	0.0899187235142018	0.20021946074801708	0.975616108261518	0.011285541444143529	-0.9797262427711421	0.20002281314853546	0.9958851639199617	-0.0069754400086764765	-0.09035531816554199
29610	134.70235097916668	0.08954451644318755	0.2002278024865392	0.9756488131937473	0.012216069088649995	-0.9797310870418265	0.19994440412240305	0.995907900978287	-0.00598533167442769	-0.09017554310216286
29611	134.70678554861112	0.08920255384427145	0.20016206701505662	0.9756936257432041	0.013129780783483784	-0.9797499844484544	0.19979383581539997	0.9959269618020375	-0.005011476979226011	-0.09002428480276398
29612	134.71125461805556	0.0889558152751172	0.20004273995638125	0.9757406238952456	0.013822701856452423	-0.9797778711475252	0.19961026056546122	0.9959396547191638	-0.004269121732546166	-0.08992207046941181
29613	134.7156891875	0.08881517129045971	0.19987144114333277	0.9757885387541367	0.014393522237546011	-0.9798152815280131	0.19938615950405758	0.9959441208553034	-0.003663481877599574	-0.08989931609466734
29614	134.72012375694445	0.08864714733517826	0.19966737822031133	0.9758455929828052	0.014963491191300764	-0.9798589870263956	0.19912925318740526	0.9959506901452014	-0.0030501833113801033	-0.08984942504581722
29615	134.7245583263889	0.08850882630043254	0.19953804248599347	0.9758846024340061	0.015837867793669358	-0.9798877211203467	0.19892012452571048	0.9959494714144239	-0.0021502554340791166	-0.08988896923926815
29616	134.72899289583336	0.08842913543349942	0.1993762314201438	0.9759248979051539	0.01679035484211023	-0.9799223033959411	0.19867149592095276	0.995940948043989	-0.0011822232844920213	-0.09000127975393335
29617	134.73342746527777	0.08839554568976153	0.19931874972959032	0.9759396823105626	0.01763089176445882	-0.9799346499864999	0.1985377380031956	0.9959294047058752	-0.0003431647833455728	-0.09013602542897187
29618	134.7378592534722	0.08841262802245399	0.1993533607530413	0.9759310655792401	0.01849458322380401	-0.9799275419720895	0.19849423889855441	0.9959122238418108	0.0005000410047129718	-0.09032492657872815
29619	134.74229104166668	0.08842967953883867	0.19938798651554054	0.9759224470263697	0.019358260117481072	-0.9799197041290346	0.19845057627754412	0.9958942963697918	0.0013432397195040314	-0.09051378991719272
29620	134.7467256111111	0.08840644710841525	0.19945199978099443	0.9759114713400131	0.02001210532474046	-0.9799055864481606	0.19845542897123775	0.9958834348206314	0.0019853037673551554	-0.0906214258264173
29621	134.75116018055556	0.08849550172125521	0.1994942293629022	0.9758947682132562	0.020191643378062632	-0.9798966638996639	0.19848129789983315	0.9958719012567813	0.002140217094347597	-0.09074456324206209
29622	134.75559475	0.08857284737502523	0.19964979448529038	0.9758559372519398	0.020059229853214473	-0.9798653168993241	0.19864940985435334	0.9958677010555048	0.001979974688792159	-0.09079428227953207
29623	134.76002931944444	0.0886534280392095	0.1998787719476316	0.9758017453466682	0.019730486471163676	-0.9798192971945714	0.19890915702588438	0.9958670983622806	0.001619064496366328	-0.09080804496105327
29624	134.76446388888888	0.08869171103333509	0.20012388440290185	0.9757480265342448	0.019123327090981083	-0.9797700997525862	0.19921056696816694	0.9958755337666202	0.0009912226294661564	-0.09072452106651263
29625	134.7688972214506	0.08856361679620078	0.20042903888574773	0.9756970257981271	0.0176959451373986	-0.9797081339273118	0.19964675264666498	0.9959133191727428	-0.00041555745675847327	-0.09031327702132314
29626	134.77333055401235	0.08843596269133876	0.20073434656599023	0.9756458387199638	0.01626846968173125	-0.9796440178283908	0.20008232112623697	0.9959490034118571	-0.001822207938993321	-0.08990140244265571
29627	134.77776388657406	0.08830874900554009	0.20103980675771707	0.9755944654147523	0.014840903930981456	-0.9795777515998673	0.20051727142832343	0.9959825864037924	-0.0032287256570219364	-0.08948889825583839
29628	134.7821972191358	0.08818197602460293	0.20134541877468154	0.9755429059979085	0.013413251092318067	-0.9795093353906159	0.2009516025757652	0.9960140680731023	-0.004635107450962004	-0.0890757653876027
29629	134.78663055169753	0.08805564403333857	0.20165118193028794	0.9754911605852675	0.011985514373142112	-0.9794387693543419	0.20138531359278297	0.9960434483490594	-0.006041350161200584	-0.0886620047661037
29630	134.79106388425927	0.08792975331556459	0.2019570955376089	0.9754392292930797	0.010557696981006313	-0.9793660536495788	0.20181840350500166	0.9960707271656573	-0.007447450628473253	-0.08824761732089564
29631	134.795497216821	0.08780430415411034	0.20226315890937116	0.9753871122380158	0.009129802123681434	-0.9792911884396919	0.2022508713394307	0.9960959044616113	-0.008853405693799015	-0.08783260398295217
29632	134.79993054938274	0.08767929683080973	0.20256937135797273	0.9753348095371615	0.0077018330090758685	-0.9792141738928727	0.20268271612448763	0.9961189801803575	-0.01025921219855974	-0.08741696568464197
29633	134.80436388194445	0.08755473162650707	0.20287573219546917	0.9752823213080214	0.006273792845301056	-0.9791350101821443	0.20311393688997934	0.9961399542700538	-0.011664866984434641	-0.08700070335974802
29634	134.80879845138887	0.08737708269795191	0.20291457645741004	0.9752901722463448	0.004059085130080916	-0.9790990719282523	0.2033433824277098	0.9961670388278774	-0.013808765706787969	-0.08637446811733779
29635	134.81323302083334	0.08727541488312024	0.20291481054593472	0.975299226708443	0.0017935753557670694	-0.979065428288084	0.2035378839884953	0.9961826062747847	-0.01601458061200535	-0.08581228445507771
29636	134.81766759027775	0.08712746694392848	0.20275735778728024	0.9753451995919474	-0.000453903921660915	-0.9790602474052268	0.20357019900281687	0.996197068092034	-0.018179268795454763	-0.08521100698206802
29637	134.82210215972222	0.08702664511170873	0.2024944424930533	0.9754088188036998	-0.002618638948085061	-0.979073747699026	0.20348891688896478	0.9962025425437644	-0.020263201277486875	-0.08467524374531066
29638	134.82653672916666	0.0869622595827825	0.20216360452946391	0.9754831840743906	-0.004766872039197843	-0.9790970982364349	0.2033375252036744	0.9962002019369494	-0.022332694164554464	-0.08418080797981092
29639	134.8309752361111	0.08688504770852166	0.20175208264797684	0.9755752588252186	-0.006761681854837208	-0.9791365679341899	0.20309077032831863	0.9961953965679536	-0.024242080794762966	-0.08370814402170379
29640	134.83540980555554	0.08685287279817537	0.20130405695715017	0.975670669406074	-0.008573490764668495	-0.9791842629356414	0.2027921953017252	0.9961842569237944	-0.02597798821651442	-0.08331908776151192
29641	134.839844375	0.0867975746877986	0.20077508656014648	0.9757845795282287	-0.010346516900257787	-0.9792466703524231	0.20240777700406157	0.9961722394326943	-0.027664475785001034	-0.08291891318144717
29642	134.84427894444443	0.08678842726651378	0.20017476285212696	0.9759087217612619	-0.01197048332210352	-0.9793247408825914	0.20193998966098964	0.9961548456046583	-0.029208153182631785	-0.08259786538415881
29643	134.8487135138889	0.08675821445977003	0.19949600494826034	0.9760503861140758	-0.01338358685840101	-0.9794227993243034	0.2013749233806157	0.9961394941606101	-0.030533983910208763	-0.0823030011604372
29644	134.85314808333334	0.08678939981878106	0.19883305157214123	0.976182881268467	-0.014577858584173833	-0.9795218935724115	0.2008092280036384	0.9961200159208706	-0.0316587683719315	-0.0821135571448271
29645	134.85758480555555	0.08675415926586606	0.1982976376673052	0.9762949158659175	-0.014549079240460663	-0.9796330215068454	0.20026848845143733	0.9961235064706222	-0.031578316436042336	-0.08210219112628858
29646	134.86202152777778	0.08671893437833561	0.19776216080410772	0.9764066541018536	-0.014520280341057951	-0.979743850145571	0.1997276885180182	0.9961269938512376	-0.031497870658563916	-0.08209078063262254
29647	134.86645825	0.08668372516698032	0.19722662114658654	0.9765180959420446	-0.014491461894787505	-0.9798543794546365	0.19918682836904925	0.996130478061648	-0.0314174310641397	-0.08207932566732423
29648	134.87089497222223	0.0866485316425855	0.19669101885878446	0.9766292413523554	-0.01446262391047708	-0.979964609400186	0.19864590817020314	0.9961339591007867	-0.031336997677409606	-0.0820678262339028
29649	134.87533169444444	0.08661335381593245	0.19615535410477725	0.9767400902987373	-0.014433766396960803	-0.9800745399484516	0.19810492808718472	0.9961374369675874	-0.031256570523013574	-0.08205628233588103
29650	134.87976841666668	0.08657819169779594	0.19561962704864658	0.9768506427472361	-0.014404889363078113	-0.9801841710657602	0.19756388828570384	0.9961409116609844	-0.03117614962558734	-0.0820446939767942
29651	134.8842051388889	0.08654304529894817	0.19508383785450636	0.9769608986639848	-0.01437599281767513	-0.9802935027185271	0.1970227889315019	0.9961443831799134	-0.031095735009766933	-0.08203306116019332
29652	134.88864186111113	0.08650791463015471	0.19454798668647616	0.9770708580152112	-0.014347076769603256	-0.9804025348732631	0.19648163019032489	0.9961478515233114	-0.03101532670018455	-0.08202138388964092
29653	134.89307858333333	0.08647279970217732	0.19401207370870796	0.9771805207672297	-0.014318141227720627	-0.9805112674965668	0.19594041222795094	0.9961513166901154	-0.030934924721472364	-0.08200966216871436
29654	134.89751315277778	0.086356016380775	0.19373760108072802	0.9772453020415743	-0.013352631184814383	-0.9805964664331821	0.19558189399634937	0.9961748569780736	-0.02993846933698538	-0.08209349778437236
29655	134.90194772222225	0.08621658105672537	0.19364094847494778	0.9772767695103632	-0.012294886525064936	-0.980647840414791	0.19539357424220036	0.996200550550051	-0.028861672916327914	-0.08216731053311915
29656	134.90638229166666	0.08604044406007288	0.19354898244617932	0.9773105102166835	-0.011182913748216497	-0.9806987990354333	0.19520452866303736	0.996228881545825	-0.027724663469683566	-0.08221531858143821
29657	134.91081686111113	0.08577587571370254	0.1935306407700664	0.9773373983577398	-0.00985524122032117	-0.9807399365792154	0.19506934925581212	0.9962657142379421	-0.026364140071776038	-0.08221653575917098
29658	134.91525143055554	0.08546059493599177	0.193535841940778	0.977363987773982	-0.008470061406681445	-0.9807761830448455	0.19495213984911922	0.9963055478983108	-0.024939058848675064	-0.0821784556364315
29659	134.91968321874998	0.08515677485093473	0.19369305887601346	0.977359362077348	-0.006998258715211999	-0.980782028930782	0.19498111729440254	0.9963429871645316	-0.02344377677917497	-0.08216472027814653
29660	134.92411500694445	0.08485271883449605	0.1938498187809736	0.9773547277549631	-0.005526449278288057	-0.98078566147389	0.19501011411103464	0.996378178436666	-0.021948439712379374	-0.08215102877885078
29661	134.9285495763889	0.0845572639458595	0.1941036509669673	0.977329955437407	-0.004153408474167062	-0.980765543152005	0.19514532677929844	0.9964099649802971	-0.020560205423249177	-0.08212465915251538
29662	134.93298414583333	0.08419950777877261	0.19445088048432027	0.9772918182245695	-0.0028230167648426313	-0.9807241446281267	0.19537702710343	0.9964449174270286	-0.019209560700380202	-0.0820275521489005
29663	134.93741871527777	0.08392481111561109	0.19477474760921454	0.9772509523008793	-0.0016505919349082364	-0.9806822937081271	0.19560039456409767	0.996470722914363	-0.0180287687081801	-0.08198208263635137
29664	134.9418532847222	0.08362672686936777	0.19513160170318114	0.9772053154633714	-0.0006127721726370488	-0.980630096046437	0.19586791273258708	0.9964969618937033	-0.01697859666483012	-0.08188731398643145
29665	134.94628785416666	0.08332787849743156	0.19549817636413216	0.9771575756772377	0.0003592771253288963	-0.9805736393551985	0.19615098450338922	0.9965221199677732	-0.015993775039067234	-0.08177935910078532
29666	134.95072642361112	0.082988202539731	0.19590123231951873	0.9771057595853784	0.0012359152886939767	-0.9805074017478048	0.19647826249020214	0.9965497633097026	-0.015097757895248741	-0.0816126641760499
29667	134.95516099305556	0.08275456539209254	0.19628818316882254	0.9770479164580667	0.0020552984560399277	-0.9804422971310583	0.19679603081523392	0.996567838962819	-0.014277644926830233	-0.08153950699091128
29668	134.9595955625	0.08252902906445883	0.19663042345579143	0.976998176013279	0.002666651019452241	-0.9803825172947737	0.1970862977355444	0.996585093373375	-0.013660027611954593	-0.08143436198327136
29669	134.96403013194444	0.08239201674758605	0.197045096803778	0.9769261924024024	0.0030688821602499936	-0.9803045914748638	0.1974676932958589	0.9965952726852322	-0.013271690129394845	-0.0813739805008783
29670	134.9684647013889	0.08225483743230992	0.1974317182999634	0.9768596922424984	0.003298490594410313	-0.9802297664461113	0.19783509530111476	0.9966058707828201	-0.013050731095478265	-0.0812798667511867
29671	134.97289927083332	0.08217455504315667	0.19786572656702736	0.9767786324206532	0.0034120325046831162	-0.9801434663659253	0.19826029197591483	0.9966121113741525	-0.01295915083214803	-0.08121797751768661
29672	134.9773310590278	0.08208433565058959	0.19829657170955595	0.9766988438044959	0.00351572289484507	-0.9800575008964895	0.1986830003524581	0.9966191858143855	-0.012874959602465173	-0.08114452465759409
29673	134.98176284722223	0.08199407017769787	0.198727371625824	0.9766188633353271	0.0036193742008681193	-0.9799713408271211	0.1991056786932217	0.9966262451822593	-0.012790735873513127	-0.08107110761378045
29674	134.98619741666664	0.08196799022230121	0.1990642449465121	0.9765524435291695	0.0037619805548691687	-0.9799044928505439	0.19943177378146923	0.9966278623845619	-0.012673250379969024	-0.0810696777074209
29675	134.9906319861111	0.08197857022561673	0.19941970171068507	0.9764790302886106	0.0037977477790334647	-0.9798322615061343	0.19978567622224955	0.9966268565193146	-0.01266972301970651	-0.08108259358847275
29676	134.99506655555555	0.08204457732323775	0.19980027626609562	0.976395686663887	0.00373823500260404	-0.979753385643103	0.20017324726332159	0.9966216498405586	-0.01277313293086066	-0.08113035279236747
29677	134.999501125	0.0821010997089946	0.20003387587227406	0.9763431046154266	0.0035756088491823382	-0.9797032142511723	0.20042162310309622	0.9966175918816264	-0.012963814617524825	-0.08114995417516307
29678	135.00393569444444	0.08216312019930783	0.20038042223889252	0.9762668221661932	0.003348025914445427	-0.9796288499391604	0.20078871255465133	0.9966132712349312	-0.013228860504266415	-0.08116024179466419
29679	135.0083827326389	0.08236192181035724	0.20070065654736824	0.9761842860326939	0.0031047433032612352	-0.9795591120282165	0.2011325597995335	0.9965976492069032	-0.013534862538917317	-0.0813014950128666
29680	135.01282977083332	0.08256080046317898	0.2010208064640229	0.9761016082331968	0.0028615304916262815	-0.9794891855367057	0.20147641812352737	0.9965819213040766	-0.013840909839847766	-0.08144263837008581
29681	135.01726434027776	0.08279309245312781	0.20127910503500937	0.9760287012779663	0.0025254673698180932	-0.9794304192418576	0.20176638936721616	0.9965635583627428	-0.014239934691730212	-0.08159839706368893
29682	135.0216989097222	0.08307549453217518	0.20144843489003406	0.975969769146868	0.0020069253395269973	-0.9793869827852748	0.20198294532320818	0.9965412357042314	-0.01482113460947758	-0.08176734990185047
29683	135.02613347916665	0.08341854512626094	0.20159406794802373	0.9759104354894386	0.0013225442476264206	-0.9793453055677833	0.20219056194357407	0.9965137215340947	-0.015575757782938973	-0.08196217764161823
29684	135.03056804861112	0.08375943623722167	0.20162352328813088	0.9758751516962113	0.0005705874341924474	-0.9793260090518391	0.20228752414466275	0.9964858409787882	-0.01638666688128182	-0.08214283825945612
29685	135.03500261805553	0.08413102627150865	0.20166096564921707	0.9758354499360681	-0.00014241557099612347	-0.9793049443551116	0.20239023118578928	0.9964546904582808	-0.017166272019789246	-0.08236121033978755
29686	135.03943440625	0.08450742639603559	0.20162505281124218	0.9758103468209295	-0.0008797119344397496	-0.9792980199203477	0.20242187205684772	0.9964224611031364	-0.017964583461640003	-0.08258058337296209
29687	135.04386619444446	0.0848837921739258	0.20158883862193056	0.9757851617898454	-0.0016169955314104814	-0.979290505738159	0.2024536754335473	0.9963895458863591	-0.01876287595657943	-0.08279992351574267
29688	135.04830076388888	0.08529940558069708	0.20154439575284805	0.9757580990943396	-0.0022700194894945767	-0.9792855378783883	0.20247143579713395	0.996352778095739	-0.01948568302254195	-0.08307496456844232
29689	135.05273533333335	0.08578228450704396	0.20154059121426587	0.9757165519543864	-0.0028887807511718843	-0.9792720112757565	0.20252896799644818	0.9963097182154373	-0.0201920287474749	-0.08342198370056253
29690	135.0571699027778	0.0862305950776293	0.20144086974251352	0.9756976275824071	-0.0035159201730122136	-0.9792778596838422	0.20249076976091954	0.9962690012129731	-0.02089137454578841	-0.08373546256928815
29691	135.06160447222223	0.08666378276091892	0.20131749130483406	0.9756847116011897	-0.004081067882971676	-0.9792895165882679	0.20242378216319218	0.9962292575720225	-0.021524646223456668	-0.08404734357760635
29692	135.06603904166667	0.08710078286096538	0.20122204194752888	0.9756654874799426	-0.004493029456609416	-0.9792983346653888	0.20237239042887759	0.9961893727155038	-0.022010487410844607	-0.08439355504200563
29693	135.0704775486111	0.08749394514448883	0.20121737849797897	0.9756312705902034	-0.004840865437749334	-0.9792897236735965	0.20240603530800405	0.9961532892004459	-0.022432202247939476	-0.08470785511061396
29694	135.07491211805555	0.08787729612630049	0.20120881310069982	0.9755985825923171	-0.005052975492178559	-0.9792848912814733	0.20242423063089168	0.9961184910763407	-0.02271816978633249	-0.08504020518174576
29695	135.07934668750002	0.08824740899204778	0.20113279707803286	0.9755808489027227	-0.005154830598373286	-0.9792965721052389	0.2023651441934374	0.9960852486246807	-0.0228871536564837	-0.08538357962636711
29696	135.08378125694443	0.08861291472989194	0.20111818115038482	0.9755507308970837	-0.005191149319887148	-0.9792970211730841	0.2023620426124003	0.9960526107148214	-0.022996119939791112	-0.08573432892315186
29697	135.0882158263889	0.08886271324844755	0.20113276350493325	0.9755250020573499	-0.005152052082048871	-0.979293702321702	0.20237910206441137	0.9960305590459902	-0.023009911732168334	-0.08598644898244023
29698	135.09265039583335	0.08909084992315251	0.20114795215412146	0.9755010619185269	-0.005180722357967414	-0.9792887924291731	0.20240212730715434	0.9960100303590421	-0.023085977709750783	-0.08620357914474841
29699	135.09708218402778	0.0892195441935675	0.20114188689049053	0.9754905505805913	-0.005226638602449616	-0.9792883651108514	0.2024030143239849	0.9959982706726009	-0.02315684124937938	-0.08632036561866269
29700	135.10151397222222	0.08934823679881419	0.2011358124707775	0.9754800241535769	-0.005272554712094344	-0.9792879345265655	0.20240390672489733	0.9959864922516524	-0.023227703984966104	-0.08643715069248753
29701	135.10594854166666	0.08941059999198979	0.20110332940708414	0.9754810072525545	-0.005292062784241736	-0.9792939168150293	0.20237445135334167	0.995980792325113	-0.023256727853767898	-0.08649500522559522
29702	135.1103831111111	0.08943836428525079	0.20111138535036324	0.9754768011984891	-0.0052152343652841025	-0.9792939025288933	0.20237651494243486	0.9959787047545213	-0.023187564602348647	-0.086537601788575
29703	135.11481768055555	0.0894835596228569	0.20110286016444698	0.9754744139088947	-0.005197247345582549	-0.9792958715925694	0.20236744921498329	0.9959747392264784	-0.023178341515926085	-0.0865856992078925
29704	135.11925225000002	0.08948073782212243	0.20114786182481217	0.9754653941796783	-0.005167740302247965	-0.9792872346563931	0.2024099960456579	0.9959751462857782	-0.023152747619688926	-0.08658786438457683
29705	135.12368681944443	0.08945446300652671	0.2012310479303663	0.9754506468279474	-0.0048401189458344126	-0.9792776602150346	0.2024644103351448	0.9959791525412589	-0.022832642260901787	-0.08662677502124594
29706	135.1281338888889	0.08939692487599461	0.20137920763478437	0.975425345454537	-0.004448954882319028	-0.9792560628453658	0.20257781265738037	0.9959861427867214	-0.02244945685267284	-0.08664655367554508
29707	135.13258095833334	0.08933932768864816	0.2015273416835765	0.9754000282356423	-0.004057796828293668	-0.9792342979276512	0.20269120367455756	0.995992981307118	-0.02206627100557995	-0.08666637681862371
29708	135.13701552777775	0.08928129440920572	0.20161367392486415	0.9753875009221389	-0.003759452286517066	-0.9792231857451917	0.20275063259468004	0.9959993559170216	-0.02176876169092031	-0.08666835655140687
29709	135.14145009722222	0.08924198245989402	0.20168313353079442	0.9753767386071025	-0.003439213138964642	-0.9792158714633177	0.20279163909619255	0.9960040363269683	-0.021452056394093647	-0.0866935343428325
29710	135.14588466666666	0.08919730700939782	0.20170661072047255	0.9753759703898446	-0.00312900319268268	-0.9792178216779973	0.20278724577058066	0.9960090610839297	-0.021140030744004418	-0.0867124520403566
29711	135.1503192361111	0.08925368352213493	0.20169988782678183	0.9753722034323072	-0.0029607865476374883	-0.979222528808887	0.20276704075403293	0.9960045249499371	-0.020985574183042217	-0.08680202736951553
29712	135.15475380555554	0.08940162145009888	0.2016339364557188	0.9753722908466615	-0.0028244146378463724	-0.9792384563480846	0.20269205285598713	0.995991652959023	-0.020875853955991466	-0.08697600794219845
29713	135.1591703125	0.0895361533648794	0.20158709267540847	0.9753696331685221	-0.0026707499633077158	-0.9792508164292021	0.20263441370452076	0.9959799919352068	-0.02074807435444665	-0.08713996256212225
29714	135.16358681944445	0.08967069060932481	0.20154026561597874	0.9753669507324346	-0.0025170931874587458	-0.9792631541733368	0.20257674871606907	0.9959682883945314	-0.020620286465722615	-0.08730390769340823
29715	135.1680213888889	0.08979748138939363	0.2014492893138441	0.9753740801205808	-0.002336012765450681	-0.9792852359023774	0.20247214570894764	0.9959573060028636	-0.020459975038421375	-0.08746675963442352
29716	135.17245595833336	0.08997303885140195	0.20138370495575206	0.975371444967577	-0.002182300524345869	-0.9793012497318793	0.20239639284829458	0.9959418104710064	-0.020338772132907957	-0.0876712296244333
29717	135.17689052777777	0.09016541164285448	0.20134791914258043	0.9753610685280746	-0.002182468125568956	-0.9793078556875288	0.2023644252865978	0.9959244124812663	-0.02037496615081928	-0.08786026051746887
29718	135.18132509722224	0.09035377173163324	0.201269327798272	0.9753598585247909	-0.0022351973949166853	-0.9793222767297947	0.20229404883332036	0.9959072245076215	-0.020458152125834586	-0.08803558476617579
29719	135.18575966666666	0.09056902912576036	0.2010941236862238	0.9753760322983578	-0.0023832023087699936	-0.9793546264017307	0.20213568732977844	0.9958873286220548	-0.020631751365218703	-0.08821994970317748
29720	135.19020673611112	0.09086689584325126	0.201081947792127	0.9753508381664191	-0.0026195116673982874	-0.9793509315434225	0.20215066421769493	0.9958596012483066	-0.020923746250496946	-0.08846384258220258
29721	135.19465380555556	0.09116475280703347	0.20106968458099184	0.9753255711751502	-0.00285581625780962	-0.9793471674861333	0.2021656989956237	0.9958317288373242	-0.02121573659781655	-0.08870772436196267
29722	135.199088375	0.09155310215721685	0.20108486846607457	0.975286063244714	-0.003129865618226217	-0.979336403580815	0.20221377935889362	0.9957952768649802	-0.021565813116526528	-0.08903191718715814
29723	135.20352294444444	0.09198940772118361	0.20102526612677898	0.9752572948949235	-0.0034496310262996776	-0.9793397945773132	0.2021921531688322	0.9957540102419314	-0.021963814238966362	-0.0893954246658516
29724	135.20795751388889	0.09238420496408423	0.2009059727582413	0.9752445584484022	-0.0037420578742262648	-0.9793561991679586	0.20210747673986731	0.9957164032373979	-0.022320960135147946	-0.08972524205943999
29725	135.21239208333333	0.09289766780554726	0.2008621829853782	0.97520480247107	-0.003986847088258646	-0.9793573408240817	0.20209726377236875	0.9956676796836307	-0.022662356901523368	-0.0901792061014231
29726	135.21682665277777	0.09341911823762794	0.20077930499842525	0.9751720561173055	-0.004281857247789513	-0.9793652614652782	0.20205284044911725	0.9956176645912895	-0.0230511457284923	-0.09063173083633652
29727	135.22126515972224	0.09400249419726858	0.2006844199299887	0.9751355263152178	-0.00465540710554608	-0.9793733536170125	0.2020053499530353	0.9955610771165044	-0.02352865959485575	-0.09112927031582818
29728	135.22569972916665	0.09462967229225967	0.20055325567547305	0.9751018494289855	-0.005018330574165076	-0.9793887554791854	0.2019219700755242	0.9954998952687579	-0.02400119328076866	-0.09167279444301485
29729	135.23013429861112	0.09521532365502662	0.20041536006866048	0.9750731898631086	-0.005393315207276442	-0.979405221815956	0.20183241471753996	0.9954420898738126	-0.024476415754502417	-0.09217348197539932
29730	135.23456886805556	0.0957933081872386	0.20020606926244913	0.9750595735323171	-0.005579042624108033	-0.9794409740382721	0.20165379405892375	0.9953856119062316	-0.024756982963193886	-0.09270693288323711
29731	135.2390034375	0.09629995816662663	0.19998891587689335	0.975054230073123	-0.005679023846031238	-0.9794807519438048	0.20145770091946041	0.9953361576599444	-0.024937724394647514	-0.09318821361499757
29732	135.24343800694444	0.09679501036063701	0.19978588456125967	0.975046832874893	-0.005677941079522629	-0.9795201423518519	0.2012661216203704	0.9952881426774771	-0.025017814794327718	-0.09367828984634108
29733	135.24786979513888	0.09732914958937512	0.19950615673270994	0.9750509371647988	-0.005634007420477871	-0.9795761772848538	0.20099445479012207	0.9952363008856716	-0.025056063572232952	-0.09421729712568272
29734	135.25230158333332	0.09786327275871869	0.19922639313827376	0.9750546775038138	-0.005590222617278569	-0.979632138876658	0.20072274881296617	0.9951841685115583	-0.0250941578272281	-0.09475628732121294
29735	135.25673615277776	0.09834628548377518	0.198923308196059	0.9750679594714823	-0.0054005475020048295	-0.9796967548203173	0.20041233165955233	0.9951375996404834	-0.024975709216667936	-0.09527524196191822
29736	135.26117072222223	0.09875866569281828	0.19867831447179773	0.9750762294863	-0.005109810181777023	-0.979752224315374	0.2001486167551079	0.9950982945370171	-0.024748864776435543	-0.09574381390877085
29737	135.26560529166665	0.09915719236853283	0.19842299141626868	0.9750877743459863	-0.004678089886608745	-0.9798132343765177	0.19986030425184378	0.9950607854179574	-0.024379134891257297	-0.09622728877689163
29738	135.27003986111112	0.09947448370021426	0.19812787192913717	0.9751154667306877	-0.003983969715963622	-0.9798888785237012	0.19950416970796692	0.9950321377110781	-0.02373040476676261	-0.09668460483307323
29739	135.27447443055553	0.09971077451168656	0.1978780155774589	0.9751420678021264	-0.0032113526618518344	-0.979956961786243	0.19918343370058986	0.9950112806699033	-0.02299225951930305	-0.09707681155577885
29740	135.2789139444444	0.09966487896224702	0.19772704248573314	0.9751773831315438	-0.002130877795197811	-0.9800123665699594	0.19892516364143012	0.9950187793510546	-0.021903836188962435	-0.09725148173135717
29741	135.28335345833332	0.09961915068400257	0.19757601114323153	0.9752126663644849	-0.0010503882202331594	-0.9800665490839796	0.19866669587831418	0.9950250858654696	-0.02081535940956604	-0.09742586571884182
29742	135.2877929722222	0.09957358973362447	0.1974249217371273	0.9752479174572222	3.0114723990803323e-05	-0.9801195092611549	0.1984080307315611	0.9950302002053318	-0.019726830530063928	-0.09759996330211856
29743	135.2922324861111	0.09952819616757569	0.1972737744546631	0.9752831363660706	0.0011106296984261543	-0.9801712470358533	0.19814916852173042	0.9950341223643043	-0.018638250899450582	-0.09777377426543171
29744	135.296672	0.09948297004211147	0.19712256948315263	0.9753183230473833	0.002191155364009639	-0.9802217623439567	0.19789010956962494	0.9950368523375258	-0.017549621866782987	-0.09794729839338001
29745	135.30111151388888	0.09943791141328089	0.19697130700998453	0.9753534774575539	0.003271690381645114	-0.9802710551228618	0.19763085419629686	0.9950383901216129	-0.016460944781200467	-0.0981205354709151
29746	135.30555102777777	0.0993930203369238	0.19681998722261582	0.9753885995530159	0.004352233412244465	-0.9803191253114807	0.1973714027230369	0.9950387357146603	-0.015372220991881031	-0.09829348528334708
29747	135.30999054166668	0.09934829686867329	0.19666861030857413	0.975423689290243	0.005432783116710657	-0.9803659728502405	0.19711175547137832	0.9950378891162391	-0.01428345184806015	-0.09846614761634276
29748	135.31443005555556	0.09930374106395491	0.19651717645546138	0.9754587466257485	0.0065133381559170185	-0.9804115976810833	0.19685191276310246	0.9950358503273988	-0.013194638699050862	-0.09863852225592112
29749	135.3188604375	0.0990122559228098	0.19644834095311892	0.9755022411629012	0.007515629739045746	-0.9804389918110247	0.19667968539278993	0.995057831729745	-0.012142185690739066	-0.0985519093673482
29750	135.32329081944445	0.09872667164766882	0.19639476428321712	0.9755419728886674	0.008432747286953668	-0.9804612099342487	0.19653168850713112	0.9950788577186073	-0.011176420554419045	-0.09845381935213582
29751	135.3277212013889	0.09839268457760068	0.1963699885366828	0.9755807025683298	0.009304503619360804	-0.9804763086031556	0.19641699132286666	0.9951041683331501	-0.010248700894886598	-0.09829882143727392
29752	135.33215158333334	0.09813559611912955	0.19634075380813037	0.9756124810437793	0.010035408283959475	-0.9804899490079806	0.19631288922254225	0.9951224524423704	-0.009474612835521836	-0.09819132526195812
29753	135.3365819652778	0.09781282564868408	0.1963910015586441	0.975634780871107	0.010707037222952732	-0.9804865848951697	0.19629420825514343	0.9951472305606475	-0.00875393325311255	-0.09800692914316628
29754	135.34101090972223	0.09755586408819077	0.19643466425716616	0.9756517186271857	0.01116497240820755	-0.9804821558332013	0.19629081864367004	0.9951674214789845	-0.008256195906868656	-0.09784497154180682
29755	135.34544129166667	0.09726377725904269	0.19647109808267635	0.9756735444048337	0.011440711302724404	-0.9804775460148146	0.19629796709506478	0.995192879676192	-0.007930282400695788	-0.0976127187555707
29756	135.34987167361112	0.09696557515289546	0.19651718477609434	0.9756939444943515	0.011579123480683762	-0.9804698351245867	0.19632836348878582	0.9952203781749484	-0.007739412021861332	-0.09734731823151893
29757	135.35430205555556	0.09673403001393263	0.19669536700873758	0.9756810237134684	0.011462128147801494	-0.980433413572756	0.19651702513623756	0.9952442650201945	-0.007826502882595678	-0.09709582275794243
29758	135.3587324375	0.09652988394460589	0.1967892268452751	0.975682315973432	0.011123818466489657	-0.9804121206858043	0.19664265629585242	0.9952679248164114	-0.008128579826945023	-0.09682811586327333
29759	135.36316281944445	0.09642220468416038	0.19694050344513728	0.9756624398564403	0.010261433334681592	-0.9803743913727915	0.19687751452704455	0.9952876274875337	-0.008971668919695785	-0.09655075207905733
29760	135.36760187500002	0.09641105377763635	0.1970628325594795	0.9756388413409546	0.008944052605876636	-0.9803369722468663	0.19712794010193005	0.9953014179797339	-0.010279147312951806	-0.09627786089257295
29761	135.37204093055556	0.09640006699702006	0.19718516997390675	0.9756152088940249	0.007626653252434373	-0.9802977915209854	0.1973779980120527	0.9953134487402133	-0.01158657332606355	-0.09600463569756706
29762	135.37647998611112	0.09638924436208327	0.1973075154682496	0.9755915425581821	0.006309237645268274	-0.9802568492656618	0.19762768780738543	0.9953237197473205	-0.012893944606066186	-0.09573107698576033
29763	135.38091904166666	0.0963785858923046	0.19742986882232064	0.9755678423760191	0.004991808155355367	-0.98021414555458	0.19787700903855698	0.9953322309825701	-0.014201258800059844	-0.09545718524948194
29764	135.38535809722222	0.09636809160686577	0.1975522298159211	0.9755441083901889	0.003674367153662856	-0.9801696804645935	0.1981259612568655	0.9953389824306447	-0.015508513555281543	-0.0951829609816528
29765	135.38979715277776	0.09635776152465313	0.1976745982288361	0.9755203406434056	0.002356917011213248	-0.9801234540757269	0.19837454401426752	0.9953439740793933	-0.01681570651904167	-0.09490840467579842
29766	135.39423620833333	0.09634759566425839	0.19779697384083983	0.9754965391784447	0.0010394600990114085	-0.9800754664711742	0.19862275686339043	0.9953472059198335	-0.018122835338794458	-0.09463351682603688
29767	135.39867526388886	0.09633759404397656	0.1979193564316911	0.9754727040381412	-0.00027800121189158164	-0.9800257177372982	0.1988705993575213	0.9953486779461477	-0.019429897662076888	-0.09435829792708778
29768	135.40311431944443	0.0963277566818079	0.19804174578113867	0.9754488352653917	-0.001595464550470889	-0.9799742079636323	0.1991180710506198	0.9953483901556874	-0.020736891136579047	-0.09408274847426107
29769	135.40754470138887	0.09648339601955161	0.19799911037296564	0.9754421082688857	-0.002609260269523703	-0.9799605904438393	0.19917437821619416	0.9953311740588557	-0.021762202748707323	-0.09403329451924947
29770	135.41197508333332	0.0966258165244744	0.19804759829147028	0.9754181669376265	-0.0034675646689053255	-0.9799308923497703	0.19930735614585413	0.9953147379478744	-0.022640561600008647	-0.09399987975625634
29771	135.41640546527776	0.09684363252685496	0.19802963455708017	0.9754002125672276	-0.004164317229147181	-0.9799174304142717	0.1993601967101412	0.9952908968241488	-0.02336864154118587	-0.09407410531863192
29772	135.4208358472222	0.09700791690115693	0.19804032405356234	0.9753817171278424	-0.004561566473713185	-0.9799050375928264	0.19941241037484944	0.995273156560451	-0.023793851074625984	-0.09415517235518389
29773	135.42526622916665	0.09713812953133243	0.19802748529016165	0.9753713645893081	-0.004784198220378034	-0.9799016730130664	0.19942372645595985	0.9952594110273674	-0.024038017718775905	-0.09423841289840151
29774	135.42969592361112	0.0972320286223118	0.19804145388690444	0.975359172383359	-0.004781710585340539	-0.9798984130875548	0.19943980363099534	0.9952502538828453	-0.02405582197417162	-0.09433053363189975
29775	135.43412561805556	0.09732592680842606	0.19805542075121488	0.9753469712271324	-0.0047792214026243125	-0.9798951529463165	0.19945588052273652	0.9952410878845718	-0.02407362754913947	-0.09442265322982463
29776	135.4385601875	0.0973011631769915	0.19804241800639727	0.9753520822321465	-0.004658249300474402	-0.9799008525057898	0.19943073978672662	0.9952440828047455	-0.02394827610927052	-0.09442296179179649
29777	135.44299475694444	0.09728021053229756	0.1980755552157582	0.9753474432553566	-0.004405814762277534	-0.9799002219147238	0.19943957452761377	0.9952472805464342	-0.02369872396236222	-0.0944522156832936
29778	135.44742932638889	0.0972005149870335	0.1981905978573851	0.9753320187542232	-0.004030887705420021	-0.9798859354246778	0.19951768217682042	0.9952566562603649	-0.02332467529970505	-0.09444653350759652
29779	135.45186389583336	0.09715816864654317	0.1982883426873872	0.9753163709379329	-0.0035673736415682933	-0.9798768953577901	0.19957089915436074	0.9952625603882381	-0.022869260990855723	-0.09449567604489001
29780	135.45629846527777	0.09706961300747671	0.19837788228400116	0.9753069804174959	-0.0030296294375027556	-0.9798711941235307	0.19960777608198854	0.9952729834452707	-0.02233066831603644	-0.09451470613882806
29781	135.4607369722222	0.09687346735536924	0.198515835858236	0.9752984129157877	-0.002447931133636206	-0.9798567196795233	0.19968679608839723	0.9952936948236502	-0.02173181567173016	-0.09443616485169631
29782	135.46517154166665	0.09667385010527957	0.198676649481571	0.9752854739288385	-0.001835738022005893	-0.9798378392330721	0.19978598267390782	0.9953144210608709	-0.021104448768954488	-0.09435997811796093
29783	135.4696061111111	0.09641305024125708	0.1988629153154405	0.9752733281780143	-0.0011791475040243149	-0.9798144835503556	0.1999054462392493	0.9953407121957487	-0.020423484942428235	-0.09423241431941465
29784	135.47404068055553	0.09611618853148976	0.19910236846213553	0.9752537747555492	-0.0004899997208971087	-0.9797805007704222	0.20007481153392184	0.9953700006542557	-0.019708302383230854	-0.09407520722655094
29785	135.47847525	0.09586452848758434	0.1992426645833671	0.9752498924827284	0.00013548226707251956	-0.9797648979234903	0.20015175852719458	0.99539438104824	-0.019055324890774515	-0.09395169381601692
29786	135.48290981944442	0.09549070486756173	0.1994263579472771	0.975249021040155	0.0008427889971768084	-0.9797419000490839	0.20026257512305404	0.9954299648848242	-0.018301285312653286	-0.09372431896419625
29787	135.48735685763887	0.0952147329537117	0.1995877210748417	0.9752429934250771	0.001572098924454369	-0.9797229087374346	0.20035106837756725	0.9954555153966076	-0.017543195011515616	-0.09359782676570444
29788	135.49180389583333	0.09493863762428548	0.19974887109838754	0.975236916641779	0.002301382901350418	-0.9797033478509292	0.20043965138271072	0.9954804662688193	-0.016785073863436136	-0.09347139975742863
29789	135.49623846527777	0.09470410351056427	0.19983666527798732	0.9752417341299715	0.0031559984575313714	-0.9797001269041872	0.20044376023627036	0.9955004633107895	-0.01590498520882804	-0.09341230643502274
29790	135.50067303472224	0.09446990509093071	0.19993265358654355	0.9752447749472712	0.003994026916223418	-0.9796941714901548	0.20045792101389162	0.9955197058728185	-0.015042086891861976	-0.09335015179866962
29791	135.50510760416665	0.09426355756716014	0.19996228087815107	0.9752586671959345	0.004664256691442302	-0.9796986000461037	0.2004217996556795	0.9955363511315392	-0.014343615085201204	-0.09328255079053399
29792	135.50954217361112	0.09410182367967436	0.19993048506956154	0.9752808046506448	0.00541357364885494	-0.9797161034354387	0.20031737291016252	0.995547859221498	-0.013570475641276811	-0.09327541042719467
29793	135.51397674305557	0.09400875472687345	0.199850102061833	0.975306254845409	0.0061604338017871175	-0.9797427552681183	0.2001653880045456	0.9955523105744251	-0.01280898924628484	-0.09333555969946405
29794	135.51840853125	0.09392656497523352	0.19981366170909137	0.9753216397611395	0.007006367397370902	-0.979760963265655	0.20004840833320514	0.9955544742543454	-0.011956398084728096	-0.09342554970131678
29795	135.52284031944444	0.09384440742322216	0.19977715007066865	0.9753370276499431	0.007852305670702801	-0.9797784423289349	0.1999313513262493	0.9955559092743301	-0.011103794717473798	-0.09351543857478328
29796	135.52727488888888	0.09380506826099362	0.19967388778939638	0.975361957277204	0.008701296969891208	-0.97980879143006	0.19974738963853123	0.9955525584315439	-0.010250403476594392	-0.09364845235760666
29797	135.53170945833332	0.0938151753434987	0.19962433120527598	0.97537112898943	0.009545083690601003	-0.9798272512563382	0.19961825836528155	0.9955438735950357	-0.0094172228547027	-0.09382809633098632
29798	135.53614402777777	0.09379577234538598	0.19958076480622594	0.9753819105404277	0.010412902077758161	-0.979844033719464	0.1994924586411457	0.995537003109604	-0.008554992912452061	-0.09398344288126687
29799	135.5405785972222	0.0938125152368713	0.1995963395963998	0.9753771133283016	0.011302096353122595	-0.9798480733781	0.19942421045412229	0.9955257277453738	-0.007684680666361371	-0.09417786937545108
29800	135.54501316666665	0.09377990692177811	0.19959053577979746	0.975381436713287	0.012171312873671063	-0.979855641410675	0.19933585010881977	0.9955185524141044	-0.006822024831970387	-0.09432004970587182
29801	135.5494297048611	0.09374217915373483	0.1996997714422049	0.975362704399466	0.013062160983943463	-0.9798390788589885	0.19936087753418036	0.9955108155102779	-0.00594817843545465	-0.09446076103526457
29802	135.55384624305555	0.0937043525810254	0.1998089733338517	0.9753439744431927	0.013952997700324621	-0.9798217313460128	0.19938577842282762	0.9955022893808663	-0.005074343048543561	-0.09460149512602894
29803	135.5582808125	0.09369750772397321	0.2000088781255309	0.9753036582097303	0.014684687445711803	-0.9797843295377332	0.19951698561003856	0.9954924093135707	-0.004372214914791225	-0.09474041764633062
29804	135.56271538194443	0.09372120838702493	0.20016676532637814	0.9752689891292814	0.015266984682086199	-0.9797543975487207	0.19962023860986655	0.9954814183485258	-0.0038192332630724367	-0.09487970900086823
29805	135.56714995138887	0.09373605960846733	0.20035367342836585	0.9752291816146799	0.015674791021582098	-0.979717601352434	0.1997691731140314	0.9954736822515743	-0.003439061498992487	-0.09497536944123225
29806	135.5715845208333	0.0937558015879158	0.20066969636688112	0.9751623057874169	0.015921392263817714	-0.9796536289317197	0.2000631814934832	0.9954679095465556	-0.0032311423578197766	-0.09504315221032233
29807	135.57601909027775	0.09382252924620976	0.20093807843710138	0.9751006212898491	0.015956946478958876	-0.9795986005554029	0.20032962249493694	0.9954610534144025	-0.0032358034398917244	-0.09511477651336103
29808	135.58048815972222	0.09386419629963101	0.20128681157714343	0.9750246828353282	0.015879169945124873	-0.9795266024249673	0.2006875359947755	0.9954583691018316	-0.003354791634069178	-0.09513874477947343
29809	135.58492272916664	0.09388485094607675	0.20163787885978418	0.9749501528651401	0.015652641235228026	-0.9794534646648178	0.20106194413276207	0.9954600090336096	-0.0036161256908040927	-0.09511200791589935
29810	135.5893572986111	0.09386379622588431	0.20200742929207133	0.974875677339872	0.01525010206775986	-0.9793756404599139	0.20147155943372302	0.9954682426602007	-0.0040439318171885535	-0.09500854945987425
29811	135.59379186805555	0.0938885854867175	0.2023679503497357	0.9747985156874988	0.014673338038402753	-0.9792985122535561	0.20188887301875424	0.9954745735909654	-0.004651512573222371	-0.09491436542835369
29812	135.5982264375	0.09390708492442547	0.20273607593740497	0.9747202382809641	0.013923219373282737	-0.9792183665855373	0.20233026096912873	0.9954836027596236	-0.005429001294444963	-0.09477828117066028
29813	135.60266100694443	0.09393273769890073	0.20300155598635422	0.9746625103365314	0.013081604389349709	-0.9791582256795672	0.2026771834979034	0.9954925978705168	-0.006287873341707541	-0.09463059882431568
29814	135.6071080451389	0.09391007887852722	0.20330344573226478	0.9746017679228871	0.011929835742964518	-0.9790874711096089	0.20308964260970225	0.9955092044296603	-0.007445325350766309	-0.09437155835444572
29815	135.61155508333334	0.09388777472982811	0.2036053353091191	0.9745408935442074	0.010778041282058224	-0.9790152507557206	0.20350177545622392	0.9955244444926519	-0.008602686869480704	-0.09411203002922836
29816	135.61598965277778	0.09380104202448918	0.2039835275307071	0.9744701560392959	0.009259850718309278	-0.9789220719516672	0.20402409713200476	0.9955478992393059	-0.010114224734716196	-0.09371276742376677
29817	135.62042422222223	0.09378018021204154	0.20430944535479695	0.9744038835812451	0.007450620054360974	-0.9788337760833012	0.20452121420359168	0.9955650486332889	-0.011920123209140814	-0.09331743996958097
29818	135.62485879166667	0.09375927226312612	0.204587623972459	0.9743475268003676	0.005411629789540224	-0.978748887722791	0.20499104625427048	0.9955801892001016	-0.01394700321585942	-0.09287393592169363
29819	135.62929336111114	0.09374359117854296	0.20481996809755457	0.9743002205590774	0.0032418802959428383	-0.9786672615407968	0.20542609717459095	0.9955910954428515	-0.016098815383575313	-0.09240778548449574
29820	135.63372793055555	0.09376021360068303	0.20501998081699271	0.9742565523574138	0.001114542830143415	-0.9785883303906118	0.20582428772522166	0.9955941844646513	-0.01821227852617501	-0.09198115443421523
29821	135.63815971875	0.09380627582112604	0.2051663072426302	0.9742213141730137	-0.0010448959439186543	-0.9785153721492591	0.20617122655711131	0.9955899210061527	-0.02035811484445464	-0.09157650545277857
29822	135.64259150694446	0.0938526626115328	0.20531252305073552	0.9741860426013439	-0.0032043133073546243	-0.9784377073457807	0.20651727583948315	0.9955809410072867	-0.022503793512962493	-0.09117109838414716
29823	135.64702607638887	0.09399425446216837	0.2053213016113666	0.9741705411439597	-0.005551190057394687	-0.9783793283107673	0.20674398231416147	0.9955572632536249	-0.024840552304364407	-0.09082225797769133
29824	135.65146064583334	0.0941685089121163	0.20519385699238152	0.9741805648758648	-0.007849791861020246	-0.9783454251148695	0.20682990577898552	0.9955253249902826	-0.02712397849496721	-0.09051860081550761
29825	135.65589521527778	0.09436109079142856	0.20488786859157018	0.9742263319417389	-0.010090933851256109	-0.9783456583287339	0.20673157930835312	0.9954868947397857	-0.02933827079634694	-0.09025025356207522
29826	135.66032978472222	0.09452147059305781	0.20452067601956925	0.9742879372533686	-0.011973295254149448	-0.9783652787042989	0.20653818442752028	0.9954508183720995	-0.03118773006100023	-0.09002773848075668
29827	135.66476435416666	0.0946970905358873	0.20406405830535182	0.9743666256353345	-0.013695596367254117	-0.9784053851664095	0.2062409583897326	0.9954119206058282	-0.03287495072726545	-0.08985736436428926
29828	135.6691808923611	0.09480955989563385	0.20353092062219796	0.9744671937541441	-0.015260120706819274	-0.9784644565854297	0.20585051837436052	0.9953784587122676	-0.03438708405288488	-0.0896618780861203
29829	135.67359743055556	0.09492117907286328	0.20299756894701368	0.9745675742425561	-0.0168246529424935	-0.9785209407639515	0.20545972729417386	0.9953426047431018	-0.03589924077239077	-0.08946699779909828
